FW version: 24
Log Version: 3.0.3

General Info:
       Command/Macro Performed,            Timestamp,             Device ID, COM Port, UART/I2C, Test Name, Host Major, Host Minor, Host Revision, Host Git Commit
            Single_measurement,  2023_06_28_12_41_59,       Insight2_F4_xxx,    USB-C,      USB,          ,          0,          1,             1,      4031237645

Show Spectrometer Status:
l0_version, f4_version, battery_perc, battery_mVolt, accelerometer_temp, accelerometer_x, accelerometer_y, accelerometer_z, compass_temp, compass_x, compass_y, compass_z, lamp_0, lamp_1, gain_0, gain_1
        17,         24,           50,          1921,               6400,              60,             376,           18744,            0,     65404,     65531,     65535,   3276,   3276,      0,      0

Temperature Statistic Info:
NTC AVG [°C], NTC2 AVG [°C]
      39.558,        39.264

Statistic Info:
M1:  num,      min,      max,   median,      AVG,      STD,M2:  num,      min,      max,   median,      AVG,      STD
     301,   536.00,   604.00,   551.00,   558.25,  21.2468,     401,   747.00,   789.00,   768.00,   767.56,  14.0681,

Measurements:
Wavelength, Data Amplitude
1350, 545.00
1351, 545.00
1352, 545.00
1353, 545.00
1354, 545.00
1355, 544.00
1356, 545.00
1357, 544.00
1358, 544.00
1359, 544.00
1360, 544.00
1361, 544.00
1362, 544.00
1363, 543.00
1364, 542.00
1365, 543.00
1366, 542.00
1367, 542.00
1368, 542.00
1369, 541.00
1370, 541.00
1371, 541.00
1372, 540.00
1373, 540.00
1374, 540.00
1375, 540.00
1376, 539.00
1377, 539.00
1378, 538.00
1379, 539.00
1380, 538.00
1381, 538.00
1382, 538.00
1383, 538.00
1384, 538.00
1385, 538.00
1386, 537.00
1387, 537.00
1388, 537.00
1389, 537.00
1390, 537.00
1391, 537.00
1392, 537.00
1393, 537.00
1394, 537.00
1395, 536.00
1396, 537.00
1397, 537.00
1398, 537.00
1399, 536.00
1400, 537.00
1401, 536.00
1402, 536.00
1403, 536.00
1404, 536.00
1405, 536.00
1406, 536.00
1407, 536.00
1408, 536.00
1409, 536.00
1410, 536.00
1411, 536.00
1412, 536.00
1413, 536.00
1414, 536.00
1415, 536.00
1416, 536.00
1417, 536.00
1418, 536.00
1419, 536.00
1420, 536.00
1421, 536.00
1422, 536.00
1423, 536.00
1424, 536.00
1425, 536.00
1426, 536.00
1427, 536.00
1428, 536.00
1429, 536.00
1430, 536.00
1431, 536.00
1432, 536.00
1433, 537.00
1434, 536.00
1435, 537.00
1436, 537.00
1437, 537.00
1438, 537.00
1439, 537.00
1440, 537.00
1441, 537.00
1442, 538.00
1443, 538.00
1444, 538.00
1445, 538.00
1446, 538.00
1447, 539.00
1448, 539.00
1449, 539.00
1450, 539.00
1451, 539.00
1452, 539.00
1453, 540.00
1454, 539.00
1455, 539.00
1456, 540.00
1457, 540.00
1458, 540.00
1459, 540.00
1460, 540.00
1461, 541.00
1462, 541.00
1463, 541.00
1464, 541.00
1465, 541.00
1466, 542.00
1467, 542.00
1468, 542.00
1469, 542.00
1470, 543.00
1471, 543.00
1472, 543.00
1473, 544.00
1474, 544.00
1475, 544.00
1476, 544.00
1477, 544.00
1478, 544.00
1479, 545.00
1480, 545.00
1481, 546.00
1482, 546.00
1483, 546.00
1484, 546.00
1485, 547.00
1486, 546.00
1487, 547.00
1488, 548.00
1489, 547.00
1490, 548.00
1491, 548.00
1492, 548.00
1493, 548.00
1494, 549.00
1495, 549.00
1496, 550.00
1497, 550.00
1498, 550.00
1499, 550.00
1500, 551.00
1501, 551.00
1502, 552.00
1503, 552.00
1504, 552.00
1505, 552.00
1506, 552.00
1507, 553.00
1508, 553.00
1509, 553.00
1510, 554.00
1511, 554.00
1512, 554.00
1513, 554.00
1514, 555.00
1515, 555.00
1516, 556.00
1517, 555.00
1518, 556.00
1519, 557.00
1520, 557.00
1521, 557.00
1522, 558.00
1523, 557.00
1524, 558.00
1525, 558.00
1526, 558.00
1527, 559.00
1528, 560.00
1529, 560.00
1530, 560.00
1531, 561.00
1532, 561.00
1533, 561.00
1534, 562.00
1535, 562.00
1536, 562.00
1537, 562.00
1538, 562.00
1539, 563.00
1540, 563.00
1541, 564.00
1542, 564.00
1543, 565.00
1544, 565.00
1545, 565.00
1546, 565.00
1547, 566.00
1548, 566.00
1549, 566.00
1550, 567.00
1551, 568.00
1552, 568.00
1553, 567.00
1554, 568.00
1555, 568.00
1556, 569.00
1557, 569.00
1558, 569.00
1559, 570.00
1560, 570.00
1561, 570.00
1562, 571.00
1563, 572.00
1564, 572.00
1565, 572.00
1566, 573.00
1567, 573.00
1568, 573.00
1569, 573.00
1570, 574.00
1571, 574.00
1572, 575.00
1573, 576.00
1574, 576.00
1575, 576.00
1576, 576.00
1577, 577.00
1578, 577.00
1579, 577.00
1580, 578.00
1581, 578.00
1582, 578.00
1583, 578.00
1584, 579.00
1585, 579.00
1586, 580.00
1587, 580.00
1588, 580.00
1589, 580.00
1590, 581.00
1591, 581.00
1592, 582.00
1593, 582.00
1594, 582.00
1595, 583.00
1596, 582.00
1597, 583.00
1598, 584.00
1599, 584.00
1600, 584.00
1601, 584.00
1602, 585.00
1603, 585.00
1604, 585.00
1605, 586.00
1606, 586.00
1607, 587.00
1608, 587.00
1609, 588.00
1610, 588.00
1611, 588.00
1612, 589.00
1613, 589.00
1614, 590.00
1615, 590.00
1616, 590.00
1617, 590.00
1618, 592.00
1619, 592.00
1620, 592.00
1621, 592.00
1622, 593.00
1623, 594.00
1624, 594.00
1625, 594.00
1626, 595.00
1627, 595.00
1628, 595.00
1629, 596.00
1630, 597.00
1631, 597.00
1632, 597.00
1633, 598.00
1634, 598.00
1635, 598.00
1636, 599.00
1637, 599.00
1638, 600.00
1639, 600.00
1640, 600.00
1641, 600.00
1642, 601.00
1643, 601.00
1644, 601.00
1645, 602.00
1646, 602.00
1647, 603.00
1648, 603.00
1649, 603.00
1650, 604.00

1750, 788.00
1751, 789.00
1752, 788.00
1753, 789.00
1754, 789.00
1755, 789.00
1756, 788.00
1757, 789.00
1758, 788.00
1759, 789.00
1760, 789.00
1761, 789.00
1762, 789.00
1763, 788.00
1764, 788.00
1765, 788.00
1766, 788.00
1767, 788.00
1768, 788.00
1769, 787.00
1770, 788.00
1771, 788.00
1772, 788.00
1773, 788.00
1774, 787.00
1775, 787.00
1776, 787.00
1777, 787.00
1778, 787.00
1779, 787.00
1780, 786.00
1781, 787.00
1782, 786.00
1783, 786.00
1784, 786.00
1785, 786.00
1786, 786.00
1787, 786.00
1788, 786.00
1789, 785.00
1790, 785.00
1791, 785.00
1792, 785.00
1793, 785.00
1794, 785.00
1795, 785.00
1796, 784.00
1797, 784.00
1798, 784.00
1799, 784.00
1800, 783.00
1801, 784.00
1802, 784.00
1803, 783.00
1804, 784.00
1805, 783.00
1806, 783.00
1807, 783.00
1808, 783.00
1809, 783.00
1810, 783.00
1811, 783.00
1812, 782.00
1813, 782.00
1814, 782.00
1815, 782.00
1816, 782.00
1817, 782.00
1818, 782.00
1819, 781.00
1820, 782.00
1821, 781.00
1822, 781.00
1823, 780.00
1824, 781.00
1825, 780.00
1826, 779.00
1827, 779.00
1828, 778.00
1829, 779.00
1830, 778.00
1831, 778.00
1832, 777.00
1833, 777.00
1834, 778.00
1835, 777.00
1836, 776.00
1837, 776.00
1838, 776.00
1839, 774.00
1840, 774.00
1841, 774.00
1842, 773.00
1843, 772.00
1844, 772.00
1845, 771.00
1846, 771.00
1847, 770.00
1848, 770.00
1849, 768.00
1850, 767.00
1851, 767.00
1852, 766.00
1853, 766.00
1854, 765.00
1855, 765.00
1856, 764.00
1857, 763.00
1858, 762.00
1859, 761.00
1860, 762.00
1861, 760.00
1862, 759.00
1863, 759.00
1864, 759.00
1865, 758.00
1866, 758.00
1867, 757.00
1868, 757.00
1869, 756.00
1870, 756.00
1871, 754.00
1872, 755.00
1873, 755.00
1874, 754.00
1875, 754.00
1876, 754.00
1877, 753.00
1878, 753.00
1879, 752.00
1880, 752.00
1881, 751.00
1882, 751.00
1883, 752.00
1884, 752.00
1885, 751.00
1886, 751.00
1887, 751.00
1888, 750.00
1889, 750.00
1890, 750.00
1891, 750.00
1892, 750.00
1893, 750.00
1894, 749.00
1895, 750.00
1896, 749.00
1897, 749.00
1898, 749.00
1899, 749.00
1900, 749.00
1901, 748.00
1902, 748.00
1903, 749.00
1904, 748.00
1905, 749.00
1906, 748.00
1907, 748.00
1908, 748.00
1909, 748.00
1910, 747.00
1911, 747.00
1912, 747.00
1913, 748.00
1914, 748.00
1915, 747.00
1916, 747.00
1917, 748.00
1918, 748.00
1919, 748.00
1920, 748.00
1921, 747.00
1922, 748.00
1923, 748.00
1924, 748.00
1925, 747.00
1926, 748.00
1927, 747.00
1928, 747.00
1929, 748.00
1930, 748.00
1931, 748.00
1932, 747.00
1933, 748.00
1934, 749.00
1935, 748.00
1936, 748.00
1937, 748.00
1938, 748.00
1939, 748.00
1940, 748.00
1941, 747.00
1942, 748.00
1943, 749.00
1944, 749.00
1945, 750.00
1946, 749.00
1947, 748.00
1948, 750.00
1949, 749.00
1950, 750.00
1951, 749.00
1952, 750.00
1953, 750.00
1954, 750.00
1955, 750.00
1956, 750.00
1957, 750.00
1958, 751.00
1959, 750.00
1960, 750.00
1961, 751.00
1962, 751.00
1963, 751.00
1964, 751.00
1965, 751.00
1966, 751.00
1967, 752.00
1968, 752.00
1969, 752.00
1970, 753.00
1971, 753.00
1972, 753.00
1973, 753.00
1974, 753.00
1975, 753.00
1976, 754.00
1977, 753.00
1978, 754.00
1979, 754.00
1980, 754.00
1981, 755.00
1982, 754.00
1983, 754.00
1984, 755.00
1985, 755.00
1986, 755.00
1987, 755.00
1988, 756.00
1989, 756.00
1990, 757.00
1991, 757.00
1992, 757.00
1993, 756.00
1994, 756.00
1995, 757.00
1996, 757.00
1997, 757.00
1998, 757.00
1999, 758.00
2000, 758.00
2001, 758.00
2002, 758.00
2003, 759.00
2004, 759.00
2005, 758.00
2006, 758.00
2007, 759.00
2008, 759.00
2009, 760.00
2010, 759.00
2011, 759.00
2012, 760.00
2013, 760.00
2014, 760.00
2015, 760.00
2016, 760.00
2017, 761.00
2018, 761.00
2019, 761.00
2020, 761.00
2021, 762.00
2022, 761.00
2023, 762.00
2024, 762.00
2025, 763.00
2026, 762.00
2027, 762.00
2028, 763.00
2029, 763.00
2030, 764.00
2031, 764.00
2032, 763.00
2033, 764.00
2034, 763.00
2035, 764.00
2036, 764.00
2037, 765.00
2038, 765.00
2039, 765.00
2040, 765.00
2041, 766.00
2042, 766.00
2043, 766.00
2044, 766.00
2045, 766.00
2046, 766.00
2047, 767.00
2048, 767.00
2049, 768.00
2050, 768.00
2051, 768.00
2052, 768.00
2053, 768.00
2054, 768.00
2055, 769.00
2056, 769.00
2057, 770.00
2058, 771.00
2059, 770.00
2060, 771.00
2061, 770.00
2062, 771.00
2063, 771.00
2064, 772.00
2065, 772.00
2066, 773.00
2067, 772.00
2068, 772.00
2069, 773.00
2070, 773.00
2071, 773.00
2072, 773.00
2073, 774.00
2074, 775.00
2075, 774.00
2076, 775.00
2077, 774.00
2078, 774.00
2079, 775.00
2080, 775.00
2081, 776.00
2082, 776.00
2083, 777.00
2084, 776.00
2085, 776.00
2086, 777.00
2087, 777.00
2088, 778.00
2089, 778.00
2090, 777.00
2091, 777.00
2092, 778.00
2093, 778.00
2094, 778.00
2095, 778.00
2096, 779.00
2097, 779.00
2098, 779.00
2099, 779.00
2100, 779.00
2101, 778.00
2102, 780.00
2103, 780.00
2104, 779.00
2105, 780.00
2106, 780.00
2107, 780.00
2108, 780.00
2109, 780.00
2110, 780.00
2111, 780.00
2112, 780.00
2113, 780.00
2114, 781.00
2115, 781.00
2116, 781.00
2117, 781.00
2118, 781.00
2119, 781.00
2120, 782.00
2121, 781.00
2122, 781.00
2123, 781.00
2124, 782.00
2125, 782.00
2126, 782.00
2127, 782.00
2128, 782.00
2129, 782.00
2130, 782.00
2131, 781.00
2132, 783.00
2133, 782.00
2134, 783.00
2135, 782.00
2136, 782.00
2137, 783.00
2138, 783.00
2139, 782.00
2140, 783.00
2141, 782.00
2142, 784.00
2143, 783.00
2144, 784.00
2145, 783.00
2146, 784.00
2147, 784.00
2148, 784.00
2149, 784.00
2150, 784.00
