FW version: 24
Log Version: 3.0.3

General Info:
       Command/Macro Performed,            Timestamp,             Device ID, COM Port, UART/I2C, Test Name, Host Major, Host Minor, Host Revision, Host Git Commit
            Single_measurement,  2023_06_27_11_51_00,       Insight2_F4_xxx,    USB-C,      USB,          ,          0,          1,             1,      4031237645

Show Spectrometer Status:
l0_version, f4_version, battery_perc, battery_mVolt, accelerometer_temp, accelerometer_x, accelerometer_y, accelerometer_z, compass_temp, compass_x, compass_y, compass_z, lamp_0, lamp_1, gain_0, gain_1
        17,         24,           95,          2077,               5440,           65312,           65528,           18472,            0,     65406,     65534,     65388,   3276,   3276,    0,    0

Temperature Statistic Info:
NTC AVG [°C], NTC2 AVG [°C]
      36.523,        36.236

Statistic Info:
M1:  num,      min,      max,   median,      AVG,      STD,M2:  num,      min,      max,   median,      AVG,      STD
     301,   647.00,   737.00,   665.00,   676.77,  28.0255,     401,   846.00,   903.00,   869.00,   870.85,  18.6534,

Measurements:
Wavelength, Data Amplitude
1350, 664.00
1351, 664.00
1352, 663.00
1353, 663.00
1354, 663.00
1355, 662.00
1356, 663.00
1357, 662.00
1358, 662.00
1359, 661.00
1360, 661.00
1361, 661.00
1362, 660.00
1363, 659.00
1364, 660.00
1365, 659.00
1366, 659.00
1367, 658.00
1368, 657.00
1369, 657.00
1370, 657.00
1371, 656.00
1372, 656.00
1373, 656.00
1374, 655.00
1375, 655.00
1376, 654.00
1377, 654.00
1378, 653.00
1379, 653.00
1380, 653.00
1381, 652.00
1382, 652.00
1383, 652.00
1384, 651.00
1385, 651.00
1386, 651.00
1387, 650.00
1388, 651.00
1389, 650.00
1390, 650.00
1391, 650.00
1392, 650.00
1393, 649.00
1394, 649.00
1395, 649.00
1396, 649.00
1397, 649.00
1398, 649.00
1399, 648.00
1400, 649.00
1401, 649.00
1402, 648.00
1403, 648.00
1404, 648.00
1405, 648.00
1406, 648.00
1407, 647.00
1408, 648.00
1409, 648.00
1410, 648.00
1411, 648.00
1412, 648.00
1413, 648.00
1414, 648.00
1415, 648.00
1416, 648.00
1417, 647.00
1418, 647.00
1419, 647.00
1420, 648.00
1421, 647.00
1422, 647.00
1423, 647.00
1424, 647.00
1425, 648.00
1426, 648.00
1427, 647.00
1428, 647.00
1429, 648.00
1430, 647.00
1431, 648.00
1432, 648.00
1433, 648.00
1434, 648.00
1435, 648.00
1436, 648.00
1437, 648.00
1438, 648.00
1439, 648.00
1440, 648.00
1441, 649.00
1442, 648.00
1443, 649.00
1444, 649.00
1445, 649.00
1446, 649.00
1447, 650.00
1448, 650.00
1449, 650.00
1450, 650.00
1451, 650.00
1452, 651.00
1453, 650.00
1454, 651.00
1455, 651.00
1456, 652.00
1457, 652.00
1458, 652.00
1459, 652.00
1460, 652.00
1461, 652.00
1462, 653.00
1463, 653.00
1464, 653.00
1465, 654.00
1466, 654.00
1467, 654.00
1468, 654.00
1469, 655.00
1470, 655.00
1471, 655.00
1472, 655.00
1473, 656.00
1474, 656.00
1475, 657.00
1476, 657.00
1477, 657.00
1478, 658.00
1479, 658.00
1480, 658.00
1481, 659.00
1482, 659.00
1483, 659.00
1484, 660.00
1485, 660.00
1486, 660.00
1487, 660.00
1488, 661.00
1489, 661.00
1490, 662.00
1491, 662.00
1492, 662.00
1493, 662.00
1494, 663.00
1495, 664.00
1496, 664.00
1497, 664.00
1498, 665.00
1499, 665.00
1500, 665.00
1501, 666.00
1502, 667.00
1503, 666.00
1504, 667.00
1505, 667.00
1506, 668.00
1507, 668.00
1508, 669.00
1509, 669.00
1510, 669.00
1511, 670.00
1512, 670.00
1513, 671.00
1514, 671.00
1515, 671.00
1516, 672.00
1517, 672.00
1518, 673.00
1519, 673.00
1520, 673.00
1521, 674.00
1522, 674.00
1523, 675.00
1524, 675.00
1525, 676.00
1526, 677.00
1527, 677.00
1528, 677.00
1529, 678.00
1530, 678.00
1531, 679.00
1532, 679.00
1533, 680.00
1534, 680.00
1535, 680.00
1536, 681.00
1537, 681.00
1538, 681.00
1539, 682.00
1540, 682.00
1541, 683.00
1542, 683.00
1543, 684.00
1544, 684.00
1545, 685.00
1546, 685.00
1547, 686.00
1548, 686.00
1549, 687.00
1550, 687.00
1551, 687.00
1552, 688.00
1553, 688.00
1554, 689.00
1555, 690.00
1556, 689.00
1557, 691.00
1558, 691.00
1559, 692.00
1560, 692.00
1561, 692.00
1562, 692.00
1563, 693.00
1564, 694.00
1565, 695.00
1566, 695.00
1567, 695.00
1568, 696.00
1569, 696.00
1570, 697.00
1571, 698.00
1572, 698.00
1573, 699.00
1574, 699.00
1575, 700.00
1576, 700.00
1577, 701.00
1578, 701.00
1579, 702.00
1580, 702.00
1581, 703.00
1582, 703.00
1583, 703.00
1584, 704.00
1585, 705.00
1586, 705.00
1587, 705.00
1588, 706.00
1589, 706.00
1590, 707.00
1591, 707.00
1592, 708.00
1593, 708.00
1594, 708.00
1595, 709.00
1596, 709.00
1597, 710.00
1598, 710.00
1599, 711.00
1600, 711.00
1601, 712.00
1602, 712.00
1603, 713.00
1604, 713.00
1605, 713.00
1606, 714.00
1607, 715.00
1608, 715.00
1609, 716.00
1610, 717.00
1611, 717.00
1612, 718.00
1613, 718.00
1614, 718.00
1615, 720.00
1616, 720.00
1617, 720.00
1618, 720.00
1619, 721.00
1620, 722.00
1621, 723.00
1622, 723.00
1623, 724.00
1624, 724.00
1625, 725.00
1626, 725.00
1627, 727.00
1628, 727.00
1629, 727.00
1630, 727.00
1631, 729.00
1632, 729.00
1633, 729.00
1634, 730.00
1635, 730.00
1636, 731.00
1637, 731.00
1638, 732.00
1639, 732.00
1640, 732.00
1641, 733.00
1642, 734.00
1643, 734.00
1644, 735.00
1645, 735.00
1646, 736.00
1647, 735.00
1648, 736.00
1649, 737.00
1650, 737.00

1750, 902.00
1751, 902.00
1752, 902.00
1753, 902.00
1754, 902.00
1755, 902.00
1756, 903.00
1757, 903.00
1758, 902.00
1759, 902.00
1760, 902.00
1761, 902.00
1762, 902.00
1763, 902.00
1764, 902.00
1765, 902.00
1766, 902.00
1767, 902.00
1768, 901.00
1769, 902.00
1770, 901.00
1771, 901.00
1772, 901.00
1773, 900.00
1774, 901.00
1775, 901.00
1776, 901.00
1777, 901.00
1778, 901.00
1779, 900.00
1780, 900.00
1781, 900.00
1782, 899.00
1783, 899.00
1784, 899.00
1785, 899.00
1786, 898.00
1787, 899.00
1788, 898.00
1789, 898.00
1790, 898.00
1791, 898.00
1792, 897.00
1793, 897.00
1794, 897.00
1795, 896.00
1796, 897.00
1797, 896.00
1798, 897.00
1799, 896.00
1800, 896.00
1801, 895.00
1802, 895.00
1803, 895.00
1804, 895.00
1805, 895.00
1806, 895.00
1807, 895.00
1808, 895.00
1809, 894.00
1810, 895.00
1811, 895.00
1812, 894.00
1813, 894.00
1814, 894.00
1815, 894.00
1816, 893.00
1817, 893.00
1818, 893.00
1819, 892.00
1820, 892.00
1821, 891.00
1822, 891.00
1823, 891.00
1824, 891.00
1825, 890.00
1826, 890.00
1827, 890.00
1828, 889.00
1829, 888.00
1830, 888.00
1831, 887.00
1832, 887.00
1833, 886.00
1834, 885.00
1835, 885.00
1836, 884.00
1837, 884.00
1838, 883.00
1839, 882.00
1840, 882.00
1841, 881.00
1842, 879.00
1843, 879.00
1844, 877.00
1845, 877.00
1846, 877.00
1847, 876.00
1848, 874.00
1849, 874.00
1850, 873.00
1851, 872.00
1852, 871.00
1853, 870.00
1854, 869.00
1855, 869.00
1856, 867.00
1857, 867.00
1858, 866.00
1859, 864.00
1860, 864.00
1861, 863.00
1862, 863.00
1863, 861.00
1864, 861.00
1865, 860.00
1866, 860.00
1867, 859.00
1868, 858.00
1869, 858.00
1870, 858.00
1871, 857.00
1872, 856.00
1873, 856.00
1874, 855.00
1875, 854.00
1876, 854.00
1877, 854.00
1878, 854.00
1879, 853.00
1880, 853.00
1881, 853.00
1882, 852.00
1883, 852.00
1884, 852.00
1885, 851.00
1886, 850.00
1887, 851.00
1888, 850.00
1889, 850.00
1890, 850.00
1891, 850.00
1892, 850.00
1893, 849.00
1894, 849.00
1895, 848.00
1896, 849.00
1897, 848.00
1898, 848.00
1899, 848.00
1900, 848.00
1901, 848.00
1902, 848.00
1903, 848.00
1904, 847.00
1905, 848.00
1906, 848.00
1907, 847.00
1908, 847.00
1909, 847.00
1910, 846.00
1911, 847.00
1912, 847.00
1913, 846.00
1914, 847.00
1915, 847.00
1916, 847.00
1917, 847.00
1918, 846.00
1919, 847.00
1920, 846.00
1921, 847.00
1922, 846.00
1923, 847.00
1924, 846.00
1925, 846.00
1926, 846.00
1927, 846.00
1928, 846.00
1929, 847.00
1930, 846.00
1931, 846.00
1932, 846.00
1933, 847.00
1934, 846.00
1935, 846.00
1936, 846.00
1937, 846.00
1938, 846.00
1939, 847.00
1940, 847.00
1941, 847.00
1942, 847.00
1943, 847.00
1944, 847.00
1945, 847.00
1946, 847.00
1947, 847.00
1948, 847.00
1949, 848.00
1950, 848.00
1951, 847.00
1952, 847.00
1953, 848.00
1954, 848.00
1955, 848.00
1956, 848.00
1957, 848.00
1958, 849.00
1959, 849.00
1960, 849.00
1961, 849.00
1962, 850.00
1963, 849.00
1964, 849.00
1965, 849.00
1966, 850.00
1967, 850.00
1968, 850.00
1969, 850.00
1970, 850.00
1971, 851.00
1972, 851.00
1973, 851.00
1974, 851.00
1975, 851.00
1976, 851.00
1977, 852.00
1978, 852.00
1979, 853.00
1980, 853.00
1981, 852.00
1982, 853.00
1983, 853.00
1984, 854.00
1985, 854.00
1986, 854.00
1987, 854.00
1988, 854.00
1989, 854.00
1990, 855.00
1991, 855.00
1992, 855.00
1993, 855.00
1994, 854.00
1995, 856.00
1996, 856.00
1997, 855.00
1998, 855.00
1999, 856.00
2000, 857.00
2001, 857.00
2002, 857.00
2003, 856.00
2004, 858.00
2005, 858.00
2006, 858.00
2007, 858.00
2008, 858.00
2009, 858.00
2010, 858.00
2011, 859.00
2012, 859.00
2013, 859.00
2014, 859.00
2015, 859.00
2016, 859.00
2017, 859.00
2018, 860.00
2019, 860.00
2020, 860.00
2021, 860.00
2022, 861.00
2023, 861.00
2024, 861.00
2025, 862.00
2026, 861.00
2027, 862.00
2028, 862.00
2029, 862.00
2030, 863.00
2031, 862.00
2032, 863.00
2033, 864.00
2034, 863.00
2035, 864.00
2036, 864.00
2037, 864.00
2038, 865.00
2039, 865.00
2040, 865.00
2041, 865.00
2042, 865.00
2043, 866.00
2044, 866.00
2045, 866.00
2046, 866.00
2047, 867.00
2048, 867.00
2049, 868.00
2050, 868.00
2051, 869.00
2052, 869.00
2053, 869.00
2054, 870.00
2055, 870.00
2056, 869.00
2057, 870.00
2058, 871.00
2059, 871.00
2060, 871.00
2061, 872.00
2062, 872.00
2063, 873.00
2064, 872.00
2065, 873.00
2066, 873.00
2067, 873.00
2068, 874.00
2069, 873.00
2070, 874.00
2071, 874.00
2072, 875.00
2073, 875.00
2074, 876.00
2075, 876.00
2076, 876.00
2077, 877.00
2078, 877.00
2079, 878.00
2080, 877.00
2081, 878.00
2082, 878.00
2083, 878.00
2084, 878.00
2085, 879.00
2086, 879.00
2087, 879.00
2088, 879.00
2089, 880.00
2090, 880.00
2091, 881.00
2092, 880.00
2093, 880.00
2094, 881.00
2095, 881.00
2096, 881.00
2097, 881.00
2098, 882.00
2099, 882.00
2100, 882.00
2101, 883.00
2102, 882.00
2103, 883.00
2104, 883.00
2105, 883.00
2106, 883.00
2107, 883.00
2108, 884.00
2109, 884.00
2110, 884.00
2111, 884.00
2112, 885.00
2113, 885.00
2114, 885.00
2115, 884.00
2116, 885.00
2117, 885.00
2118, 885.00
2119, 885.00
2120, 885.00
2121, 885.00
2122, 886.00
2123, 885.00
2124, 886.00
2125, 886.00
2126, 886.00
2127, 886.00
2128, 886.00
2129, 886.00
2130, 886.00
2131, 887.00
2132, 886.00
2133, 887.00
2134, 887.00
2135, 887.00
2136, 887.00
2137, 887.00
2138, 887.00
2139, 888.00
2140, 888.00
2141, 887.00
2142, 888.00
2143, 887.00
2144, 889.00
2145, 888.00
2146, 888.00
2147, 889.00
2148, 888.00
2149, 889.00
2150, 888.00
