FW version: 24
Log Version: 3.0.3

General Info:
       Command/Macro Performed,            Timestamp,             Device ID, COM Port, UART/I2C, Test Name, Host Major, Host Minor, Host Revision, Host Git Commit
            Single_measurement,  2023_07_04_11_48_57,       Insight2_F4_xxx,    USB-C,      USB,          ,          0,          1,             1,      4031237645

Show Spectrometer Status:
l0_version, f4_version, battery_perc, battery_mVolt, accelerometer_temp, accelerometer_x, accelerometer_y, accelerometer_z, compass_temp, compass_x, compass_y, compass_z, lamp_0, lamp_1, gain_0, gain_1
        17,         24,           35,          1880,               6240,              32,            2532,           19208,            0,     65399,     65525,     19309,   2457,   2457,      1,      1

Temperature Statistic Info:
NTC AVG [°C], NTC2 AVG [°C]
      38.854,        38.537

Statistic Info:
M1:  num,      min,      max,   median,      AVG,      STD,M2:  num,      min,      max,   median,      AVG,      STD
     301,   934.00,  1060.00,   964.00,   976.55,  39.2058,     401,  1388.00,  1463.00,  1429.00,  1427.16,  26.2616,

Measurements:
Wavelength, Data Amplitude
1350, 949.00
1351, 949.00
1352, 948.00
1353, 948.00
1354, 948.00
1355, 947.00
1356, 947.00
1357, 948.00
1358, 948.00
1359, 946.00
1360, 947.00
1361, 946.00
1362, 947.00
1363, 946.00
1364, 945.00
1365, 944.00
1366, 944.00
1367, 944.00
1368, 943.00
1369, 943.00
1370, 942.00
1371, 943.00
1372, 941.00
1373, 941.00
1374, 942.00
1375, 940.00
1376, 941.00
1377, 941.00
1378, 940.00
1379, 939.00
1380, 938.00
1381, 938.00
1382, 939.00
1383, 938.00
1384, 938.00
1385, 937.00
1386, 937.00
1387, 937.00
1388, 937.00
1389, 937.00
1390, 937.00
1391, 936.00
1392, 936.00
1393, 937.00
1394, 936.00
1395, 936.00
1396, 936.00
1397, 936.00
1398, 935.00
1399, 936.00
1400, 936.00
1401, 935.00
1402, 935.00
1403, 935.00
1404, 936.00
1405, 936.00
1406, 935.00
1407, 936.00
1408, 935.00
1409, 935.00
1410, 936.00
1411, 935.00
1412, 935.00
1413, 935.00
1414, 935.00
1415, 934.00
1416, 935.00
1417, 935.00
1418, 936.00
1419, 935.00
1420, 936.00
1421, 936.00
1422, 936.00
1423, 936.00
1424, 935.00
1425, 935.00
1426, 936.00
1427, 936.00
1428, 935.00
1429, 937.00
1430, 936.00
1431, 936.00
1432, 937.00
1433, 937.00
1434, 938.00
1435, 937.00
1436, 937.00
1437, 939.00
1438, 939.00
1439, 939.00
1440, 939.00
1441, 939.00
1442, 939.00
1443, 938.00
1444, 939.00
1445, 940.00
1446, 941.00
1447, 940.00
1448, 940.00
1449, 941.00
1450, 942.00
1451, 941.00
1452, 942.00
1453, 942.00
1454, 942.00
1455, 942.00
1456, 943.00
1457, 943.00
1458, 943.00
1459, 944.00
1460, 945.00
1461, 945.00
1462, 945.00
1463, 946.00
1464, 947.00
1465, 947.00
1466, 946.00
1467, 947.00
1468, 948.00
1469, 948.00
1470, 948.00
1471, 949.00
1472, 949.00
1473, 950.00
1474, 951.00
1475, 951.00
1476, 952.00
1477, 953.00
1478, 952.00
1479, 952.00
1480, 953.00
1481, 953.00
1482, 954.00
1483, 954.00
1484, 955.00
1485, 956.00
1486, 957.00
1487, 957.00
1488, 957.00
1489, 958.00
1490, 958.00
1491, 958.00
1492, 959.00
1493, 961.00
1494, 962.00
1495, 961.00
1496, 962.00
1497, 963.00
1498, 964.00
1499, 963.00
1500, 964.00
1501, 964.00
1502, 966.00
1503, 965.00
1504, 967.00
1505, 967.00
1506, 967.00
1507, 968.00
1508, 969.00
1509, 969.00
1510, 970.00
1511, 970.00
1512, 970.00
1513, 971.00
1514, 972.00
1515, 972.00
1516, 973.00
1517, 973.00
1518, 974.00
1519, 975.00
1520, 975.00
1521, 975.00
1522, 976.00
1523, 977.00
1524, 978.00
1525, 978.00
1526, 979.00
1527, 979.00
1528, 981.00
1529, 981.00
1530, 981.00
1531, 982.00
1532, 982.00
1533, 983.00
1534, 984.00
1535, 984.00
1536, 985.00
1537, 985.00
1538, 986.00
1539, 987.00
1540, 988.00
1541, 987.00
1542, 988.00
1543, 989.00
1544, 990.00
1545, 990.00
1546, 991.00
1547, 991.00
1548, 991.00
1549, 993.00
1550, 994.00
1551, 994.00
1552, 995.00
1553, 996.00
1554, 996.00
1555, 997.00
1556, 997.00
1557, 997.00
1558, 998.00
1559, 998.00
1560, 999.00
1561, 1000.00
1562, 1000.00
1563, 1001.00
1564, 1001.00
1565, 1003.00
1566, 1002.00
1567, 1004.00
1568, 1005.00
1569, 1005.00
1570, 1005.00
1571, 1007.00
1572, 1007.00
1573, 1007.00
1574, 1008.00
1575, 1008.00
1576, 1009.00
1577, 1010.00
1578, 1011.00
1579, 1012.00
1580, 1012.00
1581, 1013.00
1582, 1013.00
1583, 1014.00
1584, 1014.00
1585, 1015.00
1586, 1015.00
1587, 1015.00
1588, 1016.00
1589, 1017.00
1590, 1018.00
1591, 1018.00
1592, 1019.00
1593, 1020.00
1594, 1019.00
1595, 1021.00
1596, 1021.00
1597, 1021.00
1598, 1023.00
1599, 1024.00
1600, 1024.00
1601, 1024.00
1602, 1026.00
1603, 1025.00
1604, 1027.00
1605, 1027.00
1606, 1028.00
1607, 1029.00
1608, 1029.00
1609, 1030.00
1610, 1031.00
1611, 1032.00
1612, 1032.00
1613, 1033.00
1614, 1034.00
1615, 1035.00
1616, 1036.00
1617, 1036.00
1618, 1037.00
1619, 1037.00
1620, 1039.00
1621, 1040.00
1622, 1040.00
1623, 1042.00
1624, 1042.00
1625, 1043.00
1626, 1043.00
1627, 1044.00
1628, 1044.00
1629, 1046.00
1630, 1046.00
1631, 1047.00
1632, 1048.00
1633, 1049.00
1634, 1050.00
1635, 1050.00
1636, 1051.00
1637, 1052.00
1638, 1052.00
1639, 1052.00
1640, 1054.00
1641, 1054.00
1642, 1055.00
1643, 1055.00
1644, 1056.00
1645, 1058.00
1646, 1057.00
1647, 1058.00
1648, 1060.00
1649, 1059.00
1650, 1060.00

1750, 1462.00
1751, 1461.00
1752, 1463.00
1753, 1462.00
1754, 1461.00
1755, 1462.00
1756, 1462.00
1757, 1462.00
1758, 1463.00
1759, 1462.00
1760, 1462.00
1761, 1463.00
1762, 1462.00
1763, 1462.00
1764, 1462.00
1765, 1461.00
1766, 1462.00
1767, 1460.00
1768, 1460.00
1769, 1460.00
1770, 1460.00
1771, 1461.00
1772, 1461.00
1773, 1461.00
1774, 1460.00
1775, 1460.00
1776, 1462.00
1777, 1458.00
1778, 1459.00
1779, 1458.00
1780, 1457.00
1781, 1458.00
1782, 1458.00
1783, 1459.00
1784, 1458.00
1785, 1458.00
1786, 1458.00
1787, 1457.00
1788, 1456.00
1789, 1458.00
1790, 1457.00
1791, 1457.00
1792, 1455.00
1793, 1456.00
1794, 1454.00
1795, 1455.00
1796, 1453.00
1797, 1455.00
1798, 1457.00
1799, 1454.00
1800, 1453.00
1801, 1454.00
1802, 1455.00
1803, 1455.00
1804, 1454.00
1805, 1453.00
1806, 1454.00
1807, 1454.00
1808, 1451.00
1809, 1453.00
1810, 1454.00
1811, 1453.00
1812, 1452.00
1813, 1452.00
1814, 1451.00
1815, 1452.00
1816, 1451.00
1817, 1452.00
1818, 1452.00
1819, 1452.00
1820, 1451.00
1821, 1450.00
1822, 1450.00
1823, 1449.00
1824, 1450.00
1825, 1450.00
1826, 1450.00
1827, 1446.00
1828, 1448.00
1829, 1448.00
1830, 1447.00
1831, 1444.00
1832, 1443.00
1833, 1444.00
1834, 1444.00
1835, 1442.00
1836, 1440.00
1837, 1440.00
1838, 1443.00
1839, 1439.00
1840, 1438.00
1841, 1437.00
1842, 1438.00
1843, 1436.00
1844, 1435.00
1845, 1433.00
1846, 1434.00
1847, 1431.00
1848, 1429.00
1849, 1428.00
1850, 1428.00
1851, 1426.00
1852, 1425.00
1853, 1424.00
1854, 1422.00
1855, 1422.00
1856, 1419.00
1857, 1419.00
1858, 1418.00
1859, 1416.00
1860, 1415.00
1861, 1413.00
1862, 1413.00
1863, 1413.00
1864, 1411.00
1865, 1410.00
1866, 1409.00
1867, 1407.00
1868, 1407.00
1869, 1406.00
1870, 1405.00
1871, 1403.00
1872, 1401.00
1873, 1403.00
1874, 1401.00
1875, 1400.00
1876, 1398.00
1877, 1399.00
1878, 1396.00
1879, 1398.00
1880, 1396.00
1881, 1397.00
1882, 1396.00
1883, 1393.00
1884, 1395.00
1885, 1396.00
1886, 1396.00
1887, 1394.00
1888, 1395.00
1889, 1393.00
1890, 1395.00
1891, 1394.00
1892, 1392.00
1893, 1392.00
1894, 1391.00
1895, 1391.00
1896, 1391.00
1897, 1391.00
1898, 1391.00
1899, 1390.00
1900, 1391.00
1901, 1391.00
1902, 1389.00
1903, 1388.00
1904, 1391.00
1905, 1391.00
1906, 1391.00
1907, 1389.00
1908, 1389.00
1909, 1389.00
1910, 1391.00
1911, 1390.00
1912, 1389.00
1913, 1389.00
1914, 1389.00
1915, 1388.00
1916, 1389.00
1917, 1389.00
1918, 1390.00
1919, 1388.00
1920, 1389.00
1921, 1389.00
1922, 1389.00
1923, 1389.00
1924, 1390.00
1925, 1389.00
1926, 1388.00
1927, 1390.00
1928, 1391.00
1929, 1389.00
1930, 1389.00
1931, 1390.00
1932, 1391.00
1933, 1389.00
1934, 1390.00
1935, 1390.00
1936, 1390.00
1937, 1388.00
1938, 1389.00
1939, 1391.00
1940, 1391.00
1941, 1391.00
1942, 1393.00
1943, 1391.00
1944, 1391.00
1945, 1390.00
1946, 1391.00
1947, 1391.00
1948, 1392.00
1949, 1391.00
1950, 1394.00
1951, 1393.00
1952, 1393.00
1953, 1394.00
1954, 1394.00
1955, 1394.00
1956, 1394.00
1957, 1393.00
1958, 1395.00
1959, 1393.00
1960, 1395.00
1961, 1396.00
1962, 1396.00
1963, 1395.00
1964, 1396.00
1965, 1396.00
1966, 1398.00
1967, 1396.00
1968, 1397.00
1969, 1398.00
1970, 1399.00
1971, 1397.00
1972, 1401.00
1973, 1400.00
1974, 1401.00
1975, 1399.00
1976, 1403.00
1977, 1401.00
1978, 1402.00
1979, 1402.00
1980, 1404.00
1981, 1403.00
1982, 1402.00
1983, 1403.00
1984, 1406.00
1985, 1405.00
1986, 1405.00
1987, 1406.00
1988, 1405.00
1989, 1405.00
1990, 1407.00
1991, 1407.00
1992, 1407.00
1993, 1409.00
1994, 1408.00
1995, 1409.00
1996, 1408.00
1997, 1407.00
1998, 1408.00
1999, 1409.00
2000, 1408.00
2001, 1412.00
2002, 1409.00
2003, 1411.00
2004, 1412.00
2005, 1412.00
2006, 1412.00
2007, 1412.00
2008, 1412.00
2009, 1411.00
2010, 1412.00
2011, 1414.00
2012, 1414.00
2013, 1415.00
2014, 1415.00
2015, 1415.00
2016, 1413.00
2017, 1416.00
2018, 1414.00
2019, 1416.00
2020, 1416.00
2021, 1417.00
2022, 1416.00
2023, 1418.00
2024, 1418.00
2025, 1420.00
2026, 1420.00
2027, 1419.00
2028, 1420.00
2029, 1420.00
2030, 1423.00
2031, 1419.00
2032, 1421.00
2033, 1422.00
2034, 1422.00
2035, 1423.00
2036, 1423.00
2037, 1423.00
2038, 1423.00
2039, 1426.00
2040, 1424.00
2041, 1425.00
2042, 1426.00
2043, 1426.00
2044, 1427.00
2045, 1428.00
2046, 1426.00
2047, 1429.00
2048, 1429.00
2049, 1429.00
2050, 1428.00
2051, 1430.00
2052, 1430.00
2053, 1430.00
2054, 1430.00
2055, 1433.00
2056, 1433.00
2057, 1432.00
2058, 1433.00
2059, 1435.00
2060, 1433.00
2061, 1436.00
2062, 1435.00
2063, 1436.00
2064, 1437.00
2065, 1438.00
2066, 1437.00
2067, 1439.00
2068, 1438.00
2069, 1440.00
2070, 1440.00
2071, 1440.00
2072, 1440.00
2073, 1441.00
2074, 1441.00
2075, 1442.00
2076, 1443.00
2077, 1442.00
2078, 1445.00
2079, 1443.00
2080, 1443.00
2081, 1446.00
2082, 1444.00
2083, 1445.00
2084, 1447.00
2085, 1448.00
2086, 1449.00
2087, 1449.00
2088, 1449.00
2089, 1448.00
2090, 1447.00
2091, 1448.00
2092, 1448.00
2093, 1450.00
2094, 1449.00
2095, 1450.00
2096, 1451.00
2097, 1450.00
2098, 1452.00
2099, 1452.00
2100, 1452.00
2101, 1451.00
2102, 1453.00
2103, 1452.00
2104, 1453.00
2105, 1455.00
2106, 1452.00
2107, 1452.00
2108, 1454.00
2109, 1453.00
2110, 1455.00
2111, 1454.00
2112, 1456.00
2113, 1457.00
2114, 1454.00
2115, 1455.00
2116, 1455.00
2117, 1458.00
2118, 1455.00
2119, 1456.00
2120, 1454.00
2121, 1456.00
2122, 1457.00
2123, 1457.00
2124, 1455.00
2125, 1455.00
2126, 1458.00
2127, 1456.00
2128, 1457.00
2129, 1459.00
2130, 1458.00
2131, 1457.00
2132, 1459.00
2133, 1458.00
2134, 1459.00
2135, 1459.00
2136, 1458.00
2137, 1459.00
2138, 1461.00
2139, 1459.00
2140, 1460.00
2141, 1461.00
2142, 1459.00
2143, 1461.00
2144, 1461.00
2145, 1459.00
2146, 1460.00
2147, 1462.00
2148, 1461.00
2149, 1461.00
2150, 1461.00
