FW version: 24
Log Version: 3.0.3

General Info:
       Command/Macro Performed,            Timestamp,             Device ID, COM Port, UART/I2C, Test Name, Host Major, Host Minor, Host Revision, Host Git Commit
            Single_measurement,  2023_06_28_11_43_50,       Insight2_F4_xxx,    USB-C,      USB,          ,          0,          1,             1,      4031237645

Show Spectrometer Status:
l0_version, f4_version, battery_perc, battery_mVolt, accelerometer_temp, accelerometer_x, accelerometer_y, accelerometer_z, compass_temp, compass_x, compass_y, compass_z, lamp_0, lamp_1, gain_0, gain_1
        17,         24,           46,          1899,               6560,           65308,            1280,           18760,            0,     65436,     65427,     18799,   3276,   3276,      1,      1

Temperature Statistic Info:
NTC AVG [°C], NTC2 AVG [°C]
      40.529,        40.233

Statistic Info:
M1:  num,      min,      max,   median,      AVG,      STD,M2:  num,      min,      max,   median,      AVG,      STD
     301,  2162.00,  2510.00,  2233.00,  2276.79, 108.6907,     401,  2736.00,  2942.00,  2816.00,  2823.68,  66.6108,

Measurements:
Wavelength, Data Amplitude
1350, 2230.00
1351, 2229.00
1352, 2227.00
1353, 2226.00
1354, 2224.00
1355, 2224.00
1356, 2222.00
1357, 2221.00
1358, 2219.00
1359, 2216.00
1360, 2215.00
1361, 2214.00
1362, 2214.00
1363, 2210.00
1364, 2209.00
1365, 2209.00
1366, 2207.00
1367, 2204.00
1368, 2201.00
1369, 2200.00
1370, 2198.00
1371, 2197.00
1372, 2194.00
1373, 2193.00
1374, 2192.00
1375, 2189.00
1376, 2188.00
1377, 2186.00
1378, 2184.00
1379, 2184.00
1380, 2183.00
1381, 2181.00
1382, 2180.00
1383, 2179.00
1384, 2177.00
1385, 2177.00
1386, 2176.00
1387, 2174.00
1388, 2174.00
1389, 2172.00
1390, 2172.00
1391, 2171.00
1392, 2172.00
1393, 2172.00
1394, 2169.00
1395, 2170.00
1396, 2170.00
1397, 2169.00
1398, 2168.00
1399, 2167.00
1400, 2167.00
1401, 2167.00
1402, 2167.00
1403, 2166.00
1404, 2166.00
1405, 2166.00
1406, 2166.00
1407, 2166.00
1408, 2164.00
1409, 2164.00
1410, 2164.00
1411, 2165.00
1412, 2163.00
1413, 2164.00
1414, 2163.00
1415, 2162.00
1416, 2162.00
1417, 2164.00
1418, 2162.00
1419, 2163.00
1420, 2163.00
1421, 2164.00
1422, 2163.00
1423, 2163.00
1424, 2163.00
1425, 2163.00
1426, 2164.00
1427, 2164.00
1428, 2164.00
1429, 2164.00
1430, 2164.00
1431, 2164.00
1432, 2165.00
1433, 2166.00
1434, 2166.00
1435, 2166.00
1436, 2165.00
1437, 2166.00
1438, 2168.00
1439, 2169.00
1440, 2169.00
1441, 2168.00
1442, 2170.00
1443, 2169.00
1444, 2171.00
1445, 2171.00
1446, 2171.00
1447, 2172.00
1448, 2173.00
1449, 2174.00
1450, 2173.00
1451, 2176.00
1452, 2176.00
1453, 2176.00
1454, 2177.00
1455, 2177.00
1456, 2179.00
1457, 2178.00
1458, 2181.00
1459, 2180.00
1460, 2182.00
1461, 2183.00
1462, 2183.00
1463, 2185.00
1464, 2185.00
1465, 2186.00
1466, 2189.00
1467, 2189.00
1468, 2190.00
1469, 2191.00
1470, 2193.00
1471, 2194.00
1472, 2196.00
1473, 2196.00
1474, 2197.00
1475, 2199.00
1476, 2199.00
1477, 2200.00
1478, 2202.00
1479, 2203.00
1480, 2205.00
1481, 2206.00
1482, 2208.00
1483, 2207.00
1484, 2209.00
1485, 2212.00
1486, 2212.00
1487, 2213.00
1488, 2216.00
1489, 2217.00
1490, 2218.00
1491, 2219.00
1492, 2221.00
1493, 2222.00
1494, 2223.00
1495, 2226.00
1496, 2226.00
1497, 2228.00
1498, 2229.00
1499, 2231.00
1500, 2233.00
1501, 2234.00
1502, 2236.00
1503, 2237.00
1504, 2237.00
1505, 2240.00
1506, 2241.00
1507, 2243.00
1508, 2244.00
1509, 2246.00
1510, 2247.00
1511, 2249.00
1512, 2250.00
1513, 2252.00
1514, 2253.00
1515, 2255.00
1516, 2257.00
1517, 2259.00
1518, 2259.00
1519, 2261.00
1520, 2264.00
1521, 2265.00
1522, 2267.00
1523, 2268.00
1524, 2271.00
1525, 2271.00
1526, 2273.00
1527, 2274.00
1528, 2276.00
1529, 2278.00
1530, 2281.00
1531, 2281.00
1532, 2284.00
1533, 2285.00
1534, 2287.00
1535, 2289.00
1536, 2292.00
1537, 2293.00
1538, 2295.00
1539, 2297.00
1540, 2298.00
1541, 2299.00
1542, 2300.00
1543, 2304.00
1544, 2305.00
1545, 2308.00
1546, 2309.00
1547, 2311.00
1548, 2313.00
1549, 2314.00
1550, 2317.00
1551, 2318.00
1552, 2321.00
1553, 2323.00
1554, 2324.00
1555, 2326.00
1556, 2328.00
1557, 2329.00
1558, 2332.00
1559, 2334.00
1560, 2335.00
1561, 2338.00
1562, 2339.00
1563, 2340.00
1564, 2344.00
1565, 2345.00
1566, 2348.00
1567, 2350.00
1568, 2352.00
1569, 2354.00
1570, 2357.00
1571, 2359.00
1572, 2361.00
1573, 2362.00
1574, 2363.00
1575, 2367.00
1576, 2369.00
1577, 2370.00
1578, 2371.00
1579, 2374.00
1580, 2376.00
1581, 2378.00
1582, 2380.00
1583, 2381.00
1584, 2383.00
1585, 2384.00
1586, 2386.00
1587, 2388.00
1588, 2389.00
1589, 2391.00
1590, 2393.00
1591, 2396.00
1592, 2395.00
1593, 2397.00
1594, 2399.00
1595, 2402.00
1596, 2403.00
1597, 2405.00
1598, 2406.00
1599, 2410.00
1600, 2411.00
1601, 2413.00
1602, 2415.00
1603, 2417.00
1604, 2419.00
1605, 2421.00
1606, 2422.00
1607, 2424.00
1608, 2427.00
1609, 2429.00
1610, 2432.00
1611, 2433.00
1612, 2436.00
1613, 2438.00
1614, 2440.00
1615, 2442.00
1616, 2444.00
1617, 2446.00
1618, 2449.00
1619, 2450.00
1620, 2453.00
1621, 2455.00
1622, 2457.00
1623, 2459.00
1624, 2462.00
1625, 2464.00
1626, 2464.00
1627, 2468.00
1628, 2470.00
1629, 2471.00
1630, 2473.00
1631, 2476.00
1632, 2479.00
1633, 2480.00
1634, 2482.00
1635, 2485.00
1636, 2486.00
1637, 2489.00
1638, 2488.00
1639, 2491.00
1640, 2493.00
1641, 2495.00
1642, 2497.00
1643, 2498.00
1644, 2500.00
1645, 2502.00
1646, 2504.00
1647, 2507.00
1648, 2507.00
1649, 2509.00
1650, 2510.00

1750, 2938.00
1751, 2942.00
1752, 2940.00
1753, 2941.00
1754, 2940.00
1755, 2938.00
1756, 2939.00
1757, 2940.00
1758, 2940.00
1759, 2939.00
1760, 2939.00
1761, 2940.00
1762, 2937.00
1763, 2939.00
1764, 2937.00
1765, 2935.00
1766, 2937.00
1767, 2936.00
1768, 2938.00
1769, 2936.00
1770, 2935.00
1771, 2936.00
1772, 2935.00
1773, 2933.00
1774, 2934.00
1775, 2933.00
1776, 2932.00
1777, 2932.00
1778, 2929.00
1779, 2929.00
1780, 2931.00
1781, 2929.00
1782, 2929.00
1783, 2928.00
1784, 2927.00
1785, 2924.00
1786, 2926.00
1787, 2925.00
1788, 2924.00
1789, 2922.00
1790, 2924.00
1791, 2921.00
1792, 2920.00
1793, 2921.00
1794, 2921.00
1795, 2918.00
1796, 2919.00
1797, 2916.00
1798, 2917.00
1799, 2915.00
1800, 2914.00
1801, 2916.00
1802, 2914.00
1803, 2916.00
1804, 2913.00
1805, 2911.00
1806, 2911.00
1807, 2911.00
1808, 2910.00
1809, 2910.00
1810, 2909.00
1811, 2908.00
1812, 2907.00
1813, 2904.00
1814, 2907.00
1815, 2905.00
1816, 2901.00
1817, 2901.00
1818, 2902.00
1819, 2899.00
1820, 2897.00
1821, 2897.00
1822, 2894.00
1823, 2891.00
1824, 2891.00
1825, 2889.00
1826, 2889.00
1827, 2886.00
1828, 2884.00
1829, 2883.00
1830, 2880.00
1831, 2879.00
1832, 2874.00
1833, 2874.00
1834, 2872.00
1835, 2871.00
1836, 2868.00
1837, 2865.00
1838, 2863.00
1839, 2859.00
1840, 2854.00
1841, 2854.00
1842, 2853.00
1843, 2849.00
1844, 2843.00
1845, 2840.00
1846, 2837.00
1847, 2835.00
1848, 2831.00
1849, 2829.00
1850, 2825.00
1851, 2823.00
1852, 2820.00
1853, 2816.00
1854, 2811.00
1855, 2809.00
1856, 2806.00
1857, 2803.00
1858, 2801.00
1859, 2799.00
1860, 2795.00
1861, 2791.00
1862, 2792.00
1863, 2787.00
1864, 2785.00
1865, 2781.00
1866, 2780.00
1867, 2777.00
1868, 2777.00
1869, 2777.00
1870, 2773.00
1871, 2770.00
1872, 2769.00
1873, 2767.00
1874, 2767.00
1875, 2764.00
1876, 2764.00
1877, 2761.00
1878, 2760.00
1879, 2759.00
1880, 2760.00
1881, 2758.00
1882, 2757.00
1883, 2753.00
1884, 2755.00
1885, 2752.00
1886, 2753.00
1887, 2752.00
1888, 2749.00
1889, 2752.00
1890, 2749.00
1891, 2749.00
1892, 2749.00
1893, 2745.00
1894, 2746.00
1895, 2747.00
1896, 2745.00
1897, 2745.00
1898, 2744.00
1899, 2744.00
1900, 2743.00
1901, 2741.00
1902, 2742.00
1903, 2742.00
1904, 2741.00
1905, 2739.00
1906, 2741.00
1907, 2741.00
1908, 2739.00
1909, 2740.00
1910, 2738.00
1911, 2738.00
1912, 2739.00
1913, 2740.00
1914, 2739.00
1915, 2739.00
1916, 2738.00
1917, 2736.00
1918, 2738.00
1919, 2738.00
1920, 2739.00
1921, 2739.00
1922, 2739.00
1923, 2738.00
1924, 2738.00
1925, 2737.00
1926, 2736.00
1927, 2737.00
1928, 2736.00
1929, 2738.00
1930, 2737.00
1931, 2737.00
1932, 2736.00
1933, 2739.00
1934, 2736.00
1935, 2738.00
1936, 2738.00
1937, 2737.00
1938, 2738.00
1939, 2738.00
1940, 2738.00
1941, 2737.00
1942, 2739.00
1943, 2738.00
1944, 2740.00
1945, 2740.00
1946, 2741.00
1947, 2741.00
1948, 2741.00
1949, 2743.00
1950, 2743.00
1951, 2743.00
1952, 2743.00
1953, 2743.00
1954, 2743.00
1955, 2744.00
1956, 2744.00
1957, 2746.00
1958, 2746.00
1959, 2746.00
1960, 2748.00
1961, 2749.00
1962, 2748.00
1963, 2749.00
1964, 2748.00
1965, 2749.00
1966, 2750.00
1967, 2750.00
1968, 2753.00
1969, 2750.00
1970, 2754.00
1971, 2750.00
1972, 2753.00
1973, 2752.00
1974, 2755.00
1975, 2756.00
1976, 2757.00
1977, 2756.00
1978, 2757.00
1979, 2758.00
1980, 2759.00
1981, 2761.00
1982, 2760.00
1983, 2762.00
1984, 2761.00
1985, 2763.00
1986, 2763.00
1987, 2763.00
1988, 2765.00
1989, 2764.00
1990, 2767.00
1991, 2767.00
1992, 2767.00
1993, 2766.00
1994, 2767.00
1995, 2768.00
1996, 2769.00
1997, 2773.00
1998, 2772.00
1999, 2774.00
2000, 2773.00
2001, 2773.00
2002, 2773.00
2003, 2774.00
2004, 2777.00
2005, 2776.00
2006, 2777.00
2007, 2777.00
2008, 2778.00
2009, 2779.00
2010, 2780.00
2011, 2781.00
2012, 2780.00
2013, 2783.00
2014, 2783.00
2015, 2785.00
2016, 2783.00
2017, 2784.00
2018, 2785.00
2019, 2785.00
2020, 2786.00
2021, 2788.00
2022, 2789.00
2023, 2789.00
2024, 2793.00
2025, 2790.00
2026, 2792.00
2027, 2794.00
2028, 2794.00
2029, 2794.00
2030, 2794.00
2031, 2795.00
2032, 2795.00
2033, 2797.00
2034, 2799.00
2035, 2798.00
2036, 2798.00
2037, 2799.00
2038, 2802.00
2039, 2803.00
2040, 2803.00
2041, 2807.00
2042, 2804.00
2043, 2806.00
2044, 2807.00
2045, 2807.00
2046, 2811.00
2047, 2811.00
2048, 2812.00
2049, 2811.00
2050, 2815.00
2051, 2815.00
2052, 2816.00
2053, 2816.00
2054, 2818.00
2055, 2821.00
2056, 2819.00
2057, 2821.00
2058, 2822.00
2059, 2823.00
2060, 2825.00
2061, 2825.00
2062, 2826.00
2063, 2828.00
2064, 2831.00
2065, 2828.00
2066, 2830.00
2067, 2832.00
2068, 2832.00
2069, 2833.00
2070, 2836.00
2071, 2836.00
2072, 2839.00
2073, 2839.00
2074, 2839.00
2075, 2841.00
2076, 2841.00
2077, 2843.00
2078, 2845.00
2079, 2844.00
2080, 2848.00
2081, 2846.00
2082, 2849.00
2083, 2849.00
2084, 2851.00
2085, 2851.00
2086, 2853.00
2087, 2853.00
2088, 2852.00
2089, 2854.00
2090, 2855.00
2091, 2856.00
2092, 2859.00
2093, 2857.00
2094, 2857.00
2095, 2859.00
2096, 2859.00
2097, 2860.00
2098, 2860.00
2099, 2863.00
2100, 2863.00
2101, 2865.00
2102, 2864.00
2103, 2866.00
2104, 2864.00
2105, 2864.00
2106, 2866.00
2107, 2867.00
2108, 2869.00
2109, 2869.00
2110, 2870.00
2111, 2870.00
2112, 2871.00
2113, 2870.00
2114, 2871.00
2115, 2872.00
2116, 2870.00
2117, 2873.00
2118, 2872.00
2119, 2873.00
2120, 2872.00
2121, 2874.00
2122, 2875.00
2123, 2875.00
2124, 2875.00
2125, 2876.00
2126, 2875.00
2127, 2877.00
2128, 2879.00
2129, 2877.00
2130, 2879.00
2131, 2881.00
2132, 2881.00
2133, 2881.00
2134, 2879.00
2135, 2883.00
2136, 2882.00
2137, 2881.00
2138, 2881.00
2139, 2882.00
2140, 2883.00
2141, 2884.00
2142, 2885.00
2143, 2885.00
2144, 2885.00
2145, 2886.00
2146, 2886.00
2147, 2885.00
2148, 2886.00
2149, 2886.00
2150, 2884.00
