FW version: 24
Log Version: 3.0.3

General Info:
       Command/Macro Performed,            Timestamp,             Device ID, COM Port, UART/I2C, Test Name, Host Major, Host Minor, Host Revision, Host Git Commit
            Single_measurement,  2023_06_28_11_43_42,       Insight2_F4_xxx,    USB-C,      USB,          ,          0,          1,             1,      4031237645

Show Spectrometer Status:
l0_version, f4_version, battery_perc, battery_mVolt, accelerometer_temp, accelerometer_x, accelerometer_y, accelerometer_z, compass_temp, compass_x, compass_y, compass_z, lamp_0, lamp_1, gain_0, gain_1
        17,         24,           46,          1897,               6560,           65260,            1472,           18960,            0,     65518,     65495,     19035,   3276,   3276,      1,      1

Temperature Statistic Info:
NTC AVG [°C], NTC2 AVG [°C]
      40.470,        40.144

Statistic Info:
M1:  num,      min,      max,   median,      AVG,      STD,M2:  num,      min,      max,   median,      AVG,      STD
     301,  2163.00,  2514.00,  2233.00,  2278.48, 108.7138,     401,  2735.00,  2943.00,  2818.00,  2825.39,  66.7743,

Measurements:
Wavelength, Data Amplitude
1350, 2232.00
1351, 2231.00
1352, 2229.00
1353, 2228.00
1354, 2226.00
1355, 2225.00
1356, 2225.00
1357, 2221.00
1358, 2221.00
1359, 2219.00
1360, 2219.00
1361, 2215.00
1362, 2216.00
1363, 2213.00
1364, 2210.00
1365, 2209.00
1366, 2207.00
1367, 2207.00
1368, 2203.00
1369, 2202.00
1370, 2201.00
1371, 2198.00
1372, 2196.00
1373, 2195.00
1374, 2193.00
1375, 2192.00
1376, 2190.00
1377, 2188.00
1378, 2187.00
1379, 2185.00
1380, 2185.00
1381, 2183.00
1382, 2183.00
1383, 2180.00
1384, 2179.00
1385, 2178.00
1386, 2176.00
1387, 2176.00
1388, 2176.00
1389, 2174.00
1390, 2174.00
1391, 2174.00
1392, 2173.00
1393, 2171.00
1394, 2171.00
1395, 2171.00
1396, 2171.00
1397, 2169.00
1398, 2170.00
1399, 2169.00
1400, 2169.00
1401, 2168.00
1402, 2169.00
1403, 2167.00
1404, 2167.00
1405, 2167.00
1406, 2166.00
1407, 2166.00
1408, 2166.00
1409, 2166.00
1410, 2166.00
1411, 2166.00
1412, 2165.00
1413, 2165.00
1414, 2164.00
1415, 2165.00
1416, 2167.00
1417, 2164.00
1418, 2165.00
1419, 2163.00
1420, 2165.00
1421, 2164.00
1422, 2165.00
1423, 2165.00
1424, 2164.00
1425, 2165.00
1426, 2164.00
1427, 2166.00
1428, 2164.00
1429, 2165.00
1430, 2165.00
1431, 2165.00
1432, 2166.00
1433, 2167.00
1434, 2166.00
1435, 2168.00
1436, 2168.00
1437, 2169.00
1438, 2168.00
1439, 2169.00
1440, 2171.00
1441, 2171.00
1442, 2172.00
1443, 2171.00
1444, 2173.00
1445, 2173.00
1446, 2174.00
1447, 2175.00
1448, 2175.00
1449, 2176.00
1450, 2176.00
1451, 2178.00
1452, 2178.00
1453, 2179.00
1454, 2178.00
1455, 2179.00
1456, 2180.00
1457, 2181.00
1458, 2182.00
1459, 2183.00
1460, 2184.00
1461, 2185.00
1462, 2186.00
1463, 2186.00
1464, 2187.00
1465, 2189.00
1466, 2190.00
1467, 2190.00
1468, 2192.00
1469, 2193.00
1470, 2194.00
1471, 2193.00
1472, 2197.00
1473, 2197.00
1474, 2199.00
1475, 2199.00
1476, 2201.00
1477, 2203.00
1478, 2203.00
1479, 2205.00
1480, 2207.00
1481, 2208.00
1482, 2210.00
1483, 2210.00
1484, 2212.00
1485, 2212.00
1486, 2215.00
1487, 2217.00
1488, 2216.00
1489, 2219.00
1490, 2220.00
1491, 2223.00
1492, 2223.00
1493, 2224.00
1494, 2226.00
1495, 2225.00
1496, 2228.00
1497, 2228.00
1498, 2230.00
1499, 2231.00
1500, 2233.00
1501, 2236.00
1502, 2236.00
1503, 2238.00
1504, 2239.00
1505, 2241.00
1506, 2242.00
1507, 2243.00
1508, 2246.00
1509, 2247.00
1510, 2249.00
1511, 2250.00
1512, 2253.00
1513, 2255.00
1514, 2255.00
1515, 2256.00
1516, 2258.00
1517, 2259.00
1518, 2262.00
1519, 2264.00
1520, 2265.00
1521, 2267.00
1522, 2270.00
1523, 2271.00
1524, 2271.00
1525, 2274.00
1526, 2276.00
1527, 2277.00
1528, 2279.00
1529, 2280.00
1530, 2282.00
1531, 2282.00
1532, 2285.00
1533, 2288.00
1534, 2289.00
1535, 2289.00
1536, 2292.00
1537, 2295.00
1538, 2297.00
1539, 2299.00
1540, 2300.00
1541, 2302.00
1542, 2303.00
1543, 2305.00
1544, 2307.00
1545, 2309.00
1546, 2310.00
1547, 2313.00
1548, 2314.00
1549, 2316.00
1550, 2318.00
1551, 2320.00
1552, 2323.00
1553, 2324.00
1554, 2325.00
1555, 2328.00
1556, 2329.00
1557, 2332.00
1558, 2333.00
1559, 2336.00
1560, 2338.00
1561, 2339.00
1562, 2342.00
1563, 2344.00
1564, 2346.00
1565, 2348.00
1566, 2350.00
1567, 2352.00
1568, 2353.00
1569, 2355.00
1570, 2357.00
1571, 2360.00
1572, 2360.00
1573, 2363.00
1574, 2365.00
1575, 2368.00
1576, 2371.00
1577, 2372.00
1578, 2374.00
1579, 2375.00
1580, 2377.00
1581, 2380.00
1582, 2381.00
1583, 2383.00
1584, 2385.00
1585, 2387.00
1586, 2388.00
1587, 2390.00
1588, 2391.00
1589, 2393.00
1590, 2397.00
1591, 2397.00
1592, 2398.00
1593, 2400.00
1594, 2402.00
1595, 2404.00
1596, 2405.00
1597, 2407.00
1598, 2409.00
1599, 2410.00
1600, 2413.00
1601, 2414.00
1602, 2416.00
1603, 2418.00
1604, 2420.00
1605, 2421.00
1606, 2424.00
1607, 2426.00
1608, 2428.00
1609, 2431.00
1610, 2433.00
1611, 2435.00
1612, 2438.00
1613, 2439.00
1614, 2440.00
1615, 2443.00
1616, 2446.00
1617, 2447.00
1618, 2450.00
1619, 2452.00
1620, 2455.00
1621, 2457.00
1622, 2459.00
1623, 2462.00
1624, 2464.00
1625, 2466.00
1626, 2467.00
1627, 2469.00
1628, 2472.00
1629, 2473.00
1630, 2475.00
1631, 2479.00
1632, 2480.00
1633, 2481.00
1634, 2483.00
1635, 2486.00
1636, 2488.00
1637, 2490.00
1638, 2490.00
1639, 2493.00
1640, 2495.00
1641, 2497.00
1642, 2499.00
1643, 2499.00
1644, 2502.00
1645, 2502.00
1646, 2506.00
1647, 2507.00
1648, 2509.00
1649, 2510.00
1650, 2514.00

1750, 2939.00
1751, 2939.00
1752, 2939.00
1753, 2941.00
1754, 2941.00
1755, 2943.00
1756, 2939.00
1757, 2942.00
1758, 2940.00
1759, 2941.00
1760, 2939.00
1761, 2940.00
1762, 2940.00
1763, 2939.00
1764, 2940.00
1765, 2939.00
1766, 2940.00
1767, 2941.00
1768, 2937.00
1769, 2939.00
1770, 2938.00
1771, 2937.00
1772, 2938.00
1773, 2935.00
1774, 2934.00
1775, 2935.00
1776, 2933.00
1777, 2933.00
1778, 2933.00
1779, 2930.00
1780, 2931.00
1781, 2932.00
1782, 2930.00
1783, 2929.00
1784, 2928.00
1785, 2927.00
1786, 2927.00
1787, 2927.00
1788, 2925.00
1789, 2926.00
1790, 2925.00
1791, 2924.00
1792, 2924.00
1793, 2922.00
1794, 2921.00
1795, 2921.00
1796, 2922.00
1797, 2920.00
1798, 2918.00
1799, 2919.00
1800, 2917.00
1801, 2919.00
1802, 2916.00
1803, 2916.00
1804, 2916.00
1805, 2915.00
1806, 2913.00
1807, 2912.00
1808, 2913.00
1809, 2911.00
1810, 2910.00
1811, 2909.00
1812, 2909.00
1813, 2908.00
1814, 2907.00
1815, 2905.00
1816, 2906.00
1817, 2905.00
1818, 2901.00
1819, 2900.00
1820, 2902.00
1821, 2899.00
1822, 2898.00
1823, 2898.00
1824, 2895.00
1825, 2892.00
1826, 2893.00
1827, 2887.00
1828, 2886.00
1829, 2887.00
1830, 2882.00
1831, 2882.00
1832, 2880.00
1833, 2876.00
1834, 2875.00
1835, 2870.00
1836, 2868.00
1837, 2867.00
1838, 2864.00
1839, 2862.00
1840, 2860.00
1841, 2855.00
1842, 2853.00
1843, 2847.00
1844, 2846.00
1845, 2842.00
1846, 2841.00
1847, 2836.00
1848, 2833.00
1849, 2830.00
1850, 2830.00
1851, 2824.00
1852, 2820.00
1853, 2818.00
1854, 2815.00
1855, 2810.00
1856, 2809.00
1857, 2805.00
1858, 2803.00
1859, 2798.00
1860, 2797.00
1861, 2794.00
1862, 2791.00
1863, 2791.00
1864, 2787.00
1865, 2783.00
1866, 2782.00
1867, 2778.00
1868, 2779.00
1869, 2776.00
1870, 2772.00
1871, 2773.00
1872, 2771.00
1873, 2768.00
1874, 2768.00
1875, 2766.00
1876, 2765.00
1877, 2765.00
1878, 2761.00
1879, 2761.00
1880, 2759.00
1881, 2758.00
1882, 2757.00
1883, 2758.00
1884, 2756.00
1885, 2756.00
1886, 2755.00
1887, 2754.00
1888, 2751.00
1889, 2754.00
1890, 2751.00
1891, 2749.00
1892, 2750.00
1893, 2749.00
1894, 2747.00
1895, 2747.00
1896, 2747.00
1897, 2746.00
1898, 2745.00
1899, 2744.00
1900, 2745.00
1901, 2745.00
1902, 2742.00
1903, 2745.00
1904, 2743.00
1905, 2741.00
1906, 2743.00
1907, 2743.00
1908, 2742.00
1909, 2743.00
1910, 2741.00
1911, 2741.00
1912, 2741.00
1913, 2741.00
1914, 2740.00
1915, 2741.00
1916, 2741.00
1917, 2737.00
1918, 2739.00
1919, 2739.00
1920, 2740.00
1921, 2738.00
1922, 2741.00
1923, 2740.00
1924, 2738.00
1925, 2738.00
1926, 2739.00
1927, 2739.00
1928, 2738.00
1929, 2739.00
1930, 2738.00
1931, 2735.00
1932, 2739.00
1933, 2739.00
1934, 2738.00
1935, 2738.00
1936, 2738.00
1937, 2740.00
1938, 2739.00
1939, 2739.00
1940, 2739.00
1941, 2740.00
1942, 2741.00
1943, 2743.00
1944, 2741.00
1945, 2739.00
1946, 2742.00
1947, 2742.00
1948, 2741.00
1949, 2744.00
1950, 2741.00
1951, 2743.00
1952, 2743.00
1953, 2745.00
1954, 2745.00
1955, 2746.00
1956, 2746.00
1957, 2746.00
1958, 2748.00
1959, 2748.00
1960, 2747.00
1961, 2747.00
1962, 2747.00
1963, 2749.00
1964, 2749.00
1965, 2749.00
1966, 2751.00
1967, 2752.00
1968, 2753.00
1969, 2755.00
1970, 2754.00
1971, 2754.00
1972, 2755.00
1973, 2755.00
1974, 2756.00
1975, 2757.00
1976, 2759.00
1977, 2759.00
1978, 2758.00
1979, 2761.00
1980, 2759.00
1981, 2760.00
1982, 2761.00
1983, 2763.00
1984, 2765.00
1985, 2765.00
1986, 2766.00
1987, 2767.00
1988, 2768.00
1989, 2767.00
1990, 2768.00
1991, 2769.00
1992, 2768.00
1993, 2768.00
1994, 2770.00
1995, 2773.00
1996, 2772.00
1997, 2773.00
1998, 2774.00
1999, 2775.00
2000, 2775.00
2001, 2775.00
2002, 2775.00
2003, 2776.00
2004, 2776.00
2005, 2778.00
2006, 2779.00
2007, 2779.00
2008, 2779.00
2009, 2780.00
2010, 2782.00
2011, 2782.00
2012, 2782.00
2013, 2785.00
2014, 2785.00
2015, 2786.00
2016, 2783.00
2017, 2786.00
2018, 2788.00
2019, 2787.00
2020, 2789.00
2021, 2789.00
2022, 2790.00
2023, 2792.00
2024, 2793.00
2025, 2794.00
2026, 2793.00
2027, 2795.00
2028, 2795.00
2029, 2795.00
2030, 2799.00
2031, 2798.00
2032, 2798.00
2033, 2799.00
2034, 2799.00
2035, 2799.00
2036, 2800.00
2037, 2802.00
2038, 2802.00
2039, 2804.00
2040, 2803.00
2041, 2805.00
2042, 2808.00
2043, 2807.00
2044, 2810.00
2045, 2810.00
2046, 2810.00
2047, 2813.00
2048, 2812.00
2049, 2813.00
2050, 2815.00
2051, 2815.00
2052, 2816.00
2053, 2817.00
2054, 2821.00
2055, 2821.00
2056, 2823.00
2057, 2823.00
2058, 2825.00
2059, 2824.00
2060, 2825.00
2061, 2828.00
2062, 2827.00
2063, 2830.00
2064, 2830.00
2065, 2832.00
2066, 2833.00
2067, 2833.00
2068, 2834.00
2069, 2835.00
2070, 2837.00
2071, 2838.00
2072, 2840.00
2073, 2839.00
2074, 2843.00
2075, 2842.00
2076, 2846.00
2077, 2846.00
2078, 2847.00
2079, 2847.00
2080, 2849.00
2081, 2850.00
2082, 2848.00
2083, 2850.00
2084, 2854.00
2085, 2850.00
2086, 2855.00
2087, 2854.00
2088, 2855.00
2089, 2857.00
2090, 2859.00
2091, 2858.00
2092, 2857.00
2093, 2859.00
2094, 2860.00
2095, 2860.00
2096, 2861.00
2097, 2862.00
2098, 2863.00
2099, 2863.00
2100, 2862.00
2101, 2865.00
2102, 2866.00
2103, 2866.00
2104, 2867.00
2105, 2866.00
2106, 2869.00
2107, 2869.00
2108, 2869.00
2109, 2869.00
2110, 2872.00
2111, 2872.00
2112, 2870.00
2113, 2873.00
2114, 2875.00
2115, 2874.00
2116, 2875.00
2117, 2875.00
2118, 2874.00
2119, 2874.00
2120, 2875.00
2121, 2875.00
2122, 2876.00
2123, 2878.00
2124, 2877.00
2125, 2878.00
2126, 2878.00
2127, 2878.00
2128, 2879.00
2129, 2880.00
2130, 2881.00
2131, 2881.00
2132, 2881.00
2133, 2882.00
2134, 2882.00
2135, 2882.00
2136, 2882.00
2137, 2884.00
2138, 2884.00
2139, 2885.00
2140, 2884.00
2141, 2885.00
2142, 2886.00
2143, 2886.00
2144, 2886.00
2145, 2887.00
2146, 2889.00
2147, 2887.00
2148, 2888.00
2149, 2889.00
2150, 2887.00
