FW version: 24
Log Version: 3.0.3

General Info:
       Command/Macro Performed,            Timestamp,             Device ID, COM Port, UART/I2C, Test Name, Host Major, Host Minor, Host Revision, Host Git Commit
            Single_measurement,  2023_06_30_11_08_51,       Insight2_F4_xxx,    USB-C,      USB,          ,          0,          1,             1,      4031237645

Show Spectrometer Status:
l0_version, f4_version, battery_perc, battery_mVolt, accelerometer_temp, accelerometer_x, accelerometer_y, accelerometer_z, compass_temp, compass_x, compass_y, compass_z, lamp_0, lamp_1, gain_0, gain_1
        17,         24,           94,          2071,               6064,           65348,             384,           18532,            0,     65348,     65491,     65534,   3276,   3276,      0,      0

Temperature Statistic Info:
NTC AVG [°C], NTC2 AVG [°C]
      38.508,        38.187

Statistic Info:
M1:  num,      min,      max,   median,      AVG,      STD,M2:  num,      min,      max,   median,      AVG,      STD
     301,   642.00,   739.00,   662.00,   674.43,  30.1151,     401,   847.00,   905.00,   869.00,   871.52,  18.7874,

Measurements:
Wavelength, Data Amplitude
1350, 661.00
1351, 661.00
1352, 661.00
1353, 660.00
1354, 660.00
1355, 660.00
1356, 659.00
1357, 659.00
1358, 658.00
1359, 658.00
1360, 657.00
1361, 657.00
1362, 657.00
1363, 657.00
1364, 656.00
1365, 656.00
1366, 655.00
1367, 655.00
1368, 654.00
1369, 654.00
1370, 653.00
1371, 652.00
1372, 652.00
1373, 652.00
1374, 651.00
1375, 651.00
1376, 650.00
1377, 650.00
1378, 649.00
1379, 649.00
1380, 648.00
1381, 648.00
1382, 647.00
1383, 648.00
1384, 647.00
1385, 647.00
1386, 647.00
1387, 646.00
1388, 646.00
1389, 646.00
1390, 645.00
1391, 645.00
1392, 646.00
1393, 645.00
1394, 645.00
1395, 645.00
1396, 645.00
1397, 644.00
1398, 644.00
1399, 644.00
1400, 644.00
1401, 644.00
1402, 644.00
1403, 643.00
1404, 643.00
1405, 644.00
1406, 644.00
1407, 644.00
1408, 643.00
1409, 643.00
1410, 643.00
1411, 643.00
1412, 643.00
1413, 642.00
1414, 643.00
1415, 643.00
1416, 643.00
1417, 643.00
1418, 643.00
1419, 643.00
1420, 643.00
1421, 642.00
1422, 643.00
1423, 643.00
1424, 643.00
1425, 643.00
1426, 643.00
1427, 643.00
1428, 643.00
1429, 643.00
1430, 643.00
1431, 644.00
1432, 643.00
1433, 643.00
1434, 644.00
1435, 644.00
1436, 644.00
1437, 644.00
1438, 644.00
1439, 644.00
1440, 644.00
1441, 645.00
1442, 645.00
1443, 645.00
1444, 645.00
1445, 645.00
1446, 645.00
1447, 645.00
1448, 645.00
1449, 646.00
1450, 645.00
1451, 646.00
1452, 647.00
1453, 646.00
1454, 647.00
1455, 647.00
1456, 647.00
1457, 648.00
1458, 648.00
1459, 648.00
1460, 648.00
1461, 648.00
1462, 649.00
1463, 649.00
1464, 649.00
1465, 649.00
1466, 650.00
1467, 650.00
1468, 650.00
1469, 651.00
1470, 651.00
1471, 651.00
1472, 652.00
1473, 651.00
1474, 652.00
1475, 653.00
1476, 653.00
1477, 653.00
1478, 654.00
1479, 654.00
1480, 654.00
1481, 655.00
1482, 655.00
1483, 656.00
1484, 656.00
1485, 656.00
1486, 656.00
1487, 657.00
1488, 657.00
1489, 658.00
1490, 658.00
1491, 658.00
1492, 659.00
1493, 659.00
1494, 660.00
1495, 660.00
1496, 660.00
1497, 661.00
1498, 661.00
1499, 662.00
1500, 662.00
1501, 662.00
1502, 663.00
1503, 663.00
1504, 664.00
1505, 664.00
1506, 664.00
1507, 665.00
1508, 665.00
1509, 666.00
1510, 666.00
1511, 667.00
1512, 667.00
1513, 667.00
1514, 668.00
1515, 668.00
1516, 669.00
1517, 669.00
1518, 670.00
1519, 670.00
1520, 670.00
1521, 671.00
1522, 672.00
1523, 672.00
1524, 673.00
1525, 673.00
1526, 673.00
1527, 674.00
1528, 675.00
1529, 675.00
1530, 675.00
1531, 676.00
1532, 677.00
1533, 677.00
1534, 678.00
1535, 678.00
1536, 678.00
1537, 679.00
1538, 680.00
1539, 680.00
1540, 681.00
1541, 681.00
1542, 681.00
1543, 682.00
1544, 682.00
1545, 683.00
1546, 683.00
1547, 684.00
1548, 684.00
1549, 685.00
1550, 685.00
1551, 686.00
1552, 686.00
1553, 687.00
1554, 688.00
1555, 688.00
1556, 689.00
1557, 689.00
1558, 690.00
1559, 691.00
1560, 691.00
1561, 692.00
1562, 692.00
1563, 693.00
1564, 693.00
1565, 694.00
1566, 694.00
1567, 695.00
1568, 695.00
1569, 696.00
1570, 697.00
1571, 697.00
1572, 697.00
1573, 698.00
1574, 699.00
1575, 699.00
1576, 699.00
1577, 700.00
1578, 700.00
1579, 702.00
1580, 702.00
1581, 702.00
1582, 703.00
1583, 703.00
1584, 704.00
1585, 704.00
1586, 705.00
1587, 705.00
1588, 705.00
1589, 706.00
1590, 707.00
1591, 707.00
1592, 707.00
1593, 708.00
1594, 709.00
1595, 709.00
1596, 710.00
1597, 710.00
1598, 711.00
1599, 711.00
1600, 711.00
1601, 712.00
1602, 713.00
1603, 713.00
1604, 714.00
1605, 714.00
1606, 715.00
1607, 715.00
1608, 716.00
1609, 716.00
1610, 717.00
1611, 718.00
1612, 718.00
1613, 718.00
1614, 720.00
1615, 720.00
1616, 721.00
1617, 721.00
1618, 722.00
1619, 723.00
1620, 723.00
1621, 724.00
1622, 724.00
1623, 725.00
1624, 726.00
1625, 726.00
1626, 727.00
1627, 727.00
1628, 728.00
1629, 729.00
1630, 729.00
1631, 730.00
1632, 730.00
1633, 731.00
1634, 731.00
1635, 732.00
1636, 732.00
1637, 733.00
1638, 733.00
1639, 733.00
1640, 734.00
1641, 735.00
1642, 736.00
1643, 736.00
1644, 736.00
1645, 737.00
1646, 738.00
1647, 738.00
1648, 738.00
1649, 739.00
1650, 739.00

1750, 904.00
1751, 905.00
1752, 904.00
1753, 904.00
1754, 904.00
1755, 904.00
1756, 904.00
1757, 905.00
1758, 904.00
1759, 904.00
1760, 904.00
1761, 904.00
1762, 904.00
1763, 904.00
1764, 904.00
1765, 903.00
1766, 904.00
1767, 903.00
1768, 903.00
1769, 904.00
1770, 904.00
1771, 903.00
1772, 904.00
1773, 903.00
1774, 903.00
1775, 903.00
1776, 902.00
1777, 902.00
1778, 902.00
1779, 902.00
1780, 902.00
1781, 901.00
1782, 901.00
1783, 901.00
1784, 901.00
1785, 901.00
1786, 901.00
1787, 900.00
1788, 900.00
1789, 900.00
1790, 900.00
1791, 900.00
1792, 899.00
1793, 899.00
1794, 899.00
1795, 899.00
1796, 899.00
1797, 898.00
1798, 898.00
1799, 898.00
1800, 897.00
1801, 898.00
1802, 897.00
1803, 898.00
1804, 898.00
1805, 897.00
1806, 897.00
1807, 897.00
1808, 896.00
1809, 896.00
1810, 895.00
1811, 895.00
1812, 895.00
1813, 895.00
1814, 895.00
1815, 895.00
1816, 895.00
1817, 893.00
1818, 894.00
1819, 893.00
1820, 893.00
1821, 893.00
1822, 892.00
1823, 891.00
1824, 891.00
1825, 890.00
1826, 891.00
1827, 890.00
1828, 889.00
1829, 889.00
1830, 888.00
1831, 887.00
1832, 887.00
1833, 886.00
1834, 886.00
1835, 885.00
1836, 884.00
1837, 884.00
1838, 883.00
1839, 882.00
1840, 882.00
1841, 881.00
1842, 880.00
1843, 879.00
1844, 878.00
1845, 877.00
1846, 876.00
1847, 875.00
1848, 874.00
1849, 873.00
1850, 872.00
1851, 871.00
1852, 871.00
1853, 870.00
1854, 869.00
1855, 868.00
1856, 867.00
1857, 867.00
1858, 865.00
1859, 865.00
1860, 864.00
1861, 863.00
1862, 863.00
1863, 862.00
1864, 861.00
1865, 861.00
1866, 860.00
1867, 859.00
1868, 859.00
1869, 858.00
1870, 858.00
1871, 857.00
1872, 857.00
1873, 856.00
1874, 856.00
1875, 856.00
1876, 854.00
1877, 855.00
1878, 854.00
1879, 853.00
1880, 854.00
1881, 853.00
1882, 853.00
1883, 852.00
1884, 853.00
1885, 852.00
1886, 852.00
1887, 852.00
1888, 851.00
1889, 851.00
1890, 851.00
1891, 851.00
1892, 851.00
1893, 850.00
1894, 851.00
1895, 850.00
1896, 851.00
1897, 850.00
1898, 849.00
1899, 849.00
1900, 849.00
1901, 850.00
1902, 849.00
1903, 850.00
1904, 849.00
1905, 849.00
1906, 849.00
1907, 848.00
1908, 849.00
1909, 848.00
1910, 848.00
1911, 848.00
1912, 848.00
1913, 848.00
1914, 848.00
1915, 848.00
1916, 847.00
1917, 848.00
1918, 848.00
1919, 847.00
1920, 848.00
1921, 848.00
1922, 847.00
1923, 848.00
1924, 848.00
1925, 847.00
1926, 847.00
1927, 848.00
1928, 848.00
1929, 847.00
1930, 847.00
1931, 847.00
1932, 847.00
1933, 847.00
1934, 848.00
1935, 847.00
1936, 848.00
1937, 848.00
1938, 847.00
1939, 847.00
1940, 848.00
1941, 848.00
1942, 848.00
1943, 848.00
1944, 849.00
1945, 848.00
1946, 848.00
1947, 848.00
1948, 849.00
1949, 848.00
1950, 848.00
1951, 848.00
1952, 849.00
1953, 849.00
1954, 848.00
1955, 848.00
1956, 849.00
1957, 850.00
1958, 849.00
1959, 849.00
1960, 849.00
1961, 851.00
1962, 849.00
1963, 850.00
1964, 851.00
1965, 850.00
1966, 851.00
1967, 851.00
1968, 850.00
1969, 851.00
1970, 851.00
1971, 851.00
1972, 852.00
1973, 852.00
1974, 852.00
1975, 852.00
1976, 853.00
1977, 852.00
1978, 853.00
1979, 852.00
1980, 853.00
1981, 854.00
1982, 853.00
1983, 853.00
1984, 853.00
1985, 854.00
1986, 855.00
1987, 854.00
1988, 855.00
1989, 855.00
1990, 855.00
1991, 855.00
1992, 855.00
1993, 855.00
1994, 856.00
1995, 856.00
1996, 856.00
1997, 857.00
1998, 857.00
1999, 856.00
2000, 857.00
2001, 857.00
2002, 858.00
2003, 857.00
2004, 857.00
2005, 858.00
2006, 858.00
2007, 858.00
2008, 858.00
2009, 858.00
2010, 859.00
2011, 859.00
2012, 859.00
2013, 859.00
2014, 859.00
2015, 859.00
2016, 861.00
2017, 861.00
2018, 860.00
2019, 860.00
2020, 860.00
2021, 861.00
2022, 861.00
2023, 862.00
2024, 861.00
2025, 861.00
2026, 862.00
2027, 862.00
2028, 862.00
2029, 863.00
2030, 863.00
2031, 863.00
2032, 864.00
2033, 863.00
2034, 864.00
2035, 865.00
2036, 865.00
2037, 865.00
2038, 864.00
2039, 865.00
2040, 865.00
2041, 866.00
2042, 866.00
2043, 866.00
2044, 866.00
2045, 868.00
2046, 866.00
2047, 867.00
2048, 868.00
2049, 868.00
2050, 867.00
2051, 868.00
2052, 869.00
2053, 869.00
2054, 869.00
2055, 869.00
2056, 870.00
2057, 870.00
2058, 871.00
2059, 871.00
2060, 871.00
2061, 872.00
2062, 872.00
2063, 873.00
2064, 873.00
2065, 873.00
2066, 874.00
2067, 874.00
2068, 874.00
2069, 873.00
2070, 874.00
2071, 874.00
2072, 875.00
2073, 875.00
2074, 876.00
2075, 876.00
2076, 877.00
2077, 877.00
2078, 877.00
2079, 877.00
2080, 877.00
2081, 877.00
2082, 877.00
2083, 878.00
2084, 878.00
2085, 878.00
2086, 879.00
2087, 879.00
2088, 879.00
2089, 880.00
2090, 879.00
2091, 880.00
2092, 881.00
2093, 881.00
2094, 881.00
2095, 881.00
2096, 882.00
2097, 881.00
2098, 882.00
2099, 881.00
2100, 882.00
2101, 882.00
2102, 882.00
2103, 882.00
2104, 883.00
2105, 883.00
2106, 883.00
2107, 883.00
2108, 883.00
2109, 883.00
2110, 884.00
2111, 884.00
2112, 884.00
2113, 884.00
2114, 884.00
2115, 885.00
2116, 885.00
2117, 885.00
2118, 885.00
2119, 886.00
2120, 885.00
2121, 886.00
2122, 886.00
2123, 886.00
2124, 886.00
2125, 886.00
2126, 887.00
2127, 886.00
2128, 887.00
2129, 887.00
2130, 886.00
2131, 887.00
2132, 887.00
2133, 887.00
2134, 888.00
2135, 888.00
2136, 888.00
2137, 887.00
2138, 888.00
2139, 887.00
2140, 888.00
2141, 888.00
2142, 888.00
2143, 888.00
2144, 887.00
2145, 888.00
2146, 888.00
2147, 889.00
2148, 888.00
2149, 888.00
2150, 888.00
