FW version: 24
Log Version: 3.0.3

General Info:
       Command/Macro Performed,            Timestamp,             Device ID, COM Port, UART/I2C, Test Name, Host Major, Host Minor, Host Revision, Host Git Commit
            Single_measurement,  2023_07_04_11_31_21,       Insight2_F4_xxx,    USB-C,      USB,          ,          0,          1,             1,      4031237645

Show Spectrometer Status:
l0_version, f4_version, battery_perc, battery_mVolt, accelerometer_temp, accelerometer_x, accelerometer_y, accelerometer_z, compass_temp, compass_x, compass_y, compass_z, lamp_0, lamp_1, gain_0, gain_1
        17,         24,           27,          1864,               6272,           64916,            2484,           19256,            0,     65492,     65525,     19322,   3276,   3276,      1,      1

Temperature Statistic Info:
NTC AVG [°C], NTC2 AVG [°C]
      39.234,        38.854

Statistic Info:
M1:  num,      min,      max,   median,      AVG,      STD,M2:  num,      min,      max,   median,      AVG,      STD
     301,  2073.00,  2378.00,  2136.00,  2173.29,  94.7550,     401,  2700.00,  2888.00,  2780.00,  2784.38,  61.6764,

Measurements:
Wavelength, Data Amplitude
1350, 2127.00
1351, 2125.00
1352, 2125.00
1353, 2125.00
1354, 2123.00
1355, 2123.00
1356, 2122.00
1357, 2120.00
1358, 2119.00
1359, 2117.00
1360, 2116.00
1361, 2115.00
1362, 2114.00
1363, 2113.00
1364, 2112.00
1365, 2110.00
1366, 2109.00
1367, 2108.00
1368, 2106.00
1369, 2104.00
1370, 2104.00
1371, 2101.00
1372, 2100.00
1373, 2098.00
1374, 2097.00
1375, 2095.00
1376, 2094.00
1377, 2093.00
1378, 2091.00
1379, 2091.00
1380, 2089.00
1381, 2088.00
1382, 2087.00
1383, 2086.00
1384, 2085.00
1385, 2084.00
1386, 2084.00
1387, 2083.00
1388, 2083.00
1389, 2082.00
1390, 2081.00
1391, 2080.00
1392, 2080.00
1393, 2080.00
1394, 2080.00
1395, 2079.00
1396, 2079.00
1397, 2078.00
1398, 2078.00
1399, 2076.00
1400, 2076.00
1401, 2076.00
1402, 2076.00
1403, 2075.00
1404, 2075.00
1405, 2075.00
1406, 2075.00
1407, 2075.00
1408, 2074.00
1409, 2075.00
1410, 2075.00
1411, 2074.00
1412, 2075.00
1413, 2073.00
1414, 2073.00
1415, 2074.00
1416, 2074.00
1417, 2074.00
1418, 2073.00
1419, 2074.00
1420, 2073.00
1421, 2073.00
1422, 2073.00
1423, 2074.00
1424, 2073.00
1425, 2074.00
1426, 2075.00
1427, 2075.00
1428, 2074.00
1429, 2075.00
1430, 2074.00
1431, 2075.00
1432, 2076.00
1433, 2076.00
1434, 2077.00
1435, 2077.00
1436, 2077.00
1437, 2078.00
1438, 2078.00
1439, 2079.00
1440, 2078.00
1441, 2078.00
1442, 2081.00
1443, 2081.00
1444, 2082.00
1445, 2082.00
1446, 2083.00
1447, 2082.00
1448, 2084.00
1449, 2084.00
1450, 2085.00
1451, 2085.00
1452, 2086.00
1453, 2086.00
1454, 2086.00
1455, 2088.00
1456, 2088.00
1457, 2089.00
1458, 2090.00
1459, 2091.00
1460, 2092.00
1461, 2092.00
1462, 2093.00
1463, 2093.00
1464, 2094.00
1465, 2096.00
1466, 2097.00
1467, 2096.00
1468, 2099.00
1469, 2099.00
1470, 2101.00
1471, 2102.00
1472, 2103.00
1473, 2104.00
1474, 2105.00
1475, 2106.00
1476, 2107.00
1477, 2109.00
1478, 2109.00
1479, 2112.00
1480, 2112.00
1481, 2113.00
1482, 2115.00
1483, 2116.00
1484, 2117.00
1485, 2118.00
1486, 2119.00
1487, 2120.00
1488, 2122.00
1489, 2122.00
1490, 2124.00
1491, 2125.00
1492, 2127.00
1493, 2128.00
1494, 2129.00
1495, 2130.00
1496, 2131.00
1497, 2132.00
1498, 2135.00
1499, 2135.00
1500, 2136.00
1501, 2139.00
1502, 2139.00
1503, 2141.00
1504, 2141.00
1505, 2142.00
1506, 2144.00
1507, 2146.00
1508, 2145.00
1509, 2148.00
1510, 2149.00
1511, 2151.00
1512, 2152.00
1513, 2153.00
1514, 2155.00
1515, 2155.00
1516, 2157.00
1517, 2160.00
1518, 2160.00
1519, 2162.00
1520, 2163.00
1521, 2165.00
1522, 2167.00
1523, 2167.00
1524, 2169.00
1525, 2171.00
1526, 2172.00
1527, 2174.00
1528, 2176.00
1529, 2176.00
1530, 2179.00
1531, 2179.00
1532, 2180.00
1533, 2183.00
1534, 2184.00
1535, 2186.00
1536, 2186.00
1537, 2189.00
1538, 2191.00
1539, 2191.00
1540, 2193.00
1541, 2195.00
1542, 2195.00
1543, 2197.00
1544, 2199.00
1545, 2201.00
1546, 2203.00
1547, 2204.00
1548, 2205.00
1549, 2207.00
1550, 2209.00
1551, 2209.00
1552, 2212.00
1553, 2214.00
1554, 2216.00
1555, 2217.00
1556, 2217.00
1557, 2222.00
1558, 2222.00
1559, 2223.00
1560, 2226.00
1561, 2227.00
1562, 2229.00
1563, 2231.00
1564, 2232.00
1565, 2234.00
1566, 2237.00
1567, 2238.00
1568, 2240.00
1569, 2241.00
1570, 2243.00
1571, 2246.00
1572, 2245.00
1573, 2248.00
1574, 2250.00
1575, 2252.00
1576, 2254.00
1577, 2254.00
1578, 2258.00
1579, 2258.00
1580, 2259.00
1581, 2261.00
1582, 2263.00
1583, 2264.00
1584, 2266.00
1585, 2267.00
1586, 2269.00
1587, 2269.00
1588, 2271.00
1589, 2273.00
1590, 2275.00
1591, 2275.00
1592, 2277.00
1593, 2278.00
1594, 2280.00
1595, 2282.00
1596, 2283.00
1597, 2285.00
1598, 2286.00
1599, 2289.00
1600, 2290.00
1601, 2290.00
1602, 2293.00
1603, 2294.00
1604, 2296.00
1605, 2299.00
1606, 2300.00
1607, 2302.00
1608, 2304.00
1609, 2306.00
1610, 2307.00
1611, 2308.00
1612, 2311.00
1613, 2312.00
1614, 2315.00
1615, 2317.00
1616, 2319.00
1617, 2321.00
1618, 2322.00
1619, 2324.00
1620, 2326.00
1621, 2328.00
1622, 2329.00
1623, 2332.00
1624, 2334.00
1625, 2336.00
1626, 2338.00
1627, 2339.00
1628, 2341.00
1629, 2343.00
1630, 2345.00
1631, 2348.00
1632, 2349.00
1633, 2350.00
1634, 2351.00
1635, 2353.00
1636, 2354.00
1637, 2357.00
1638, 2357.00
1639, 2360.00
1640, 2361.00
1641, 2363.00
1642, 2364.00
1643, 2365.00
1644, 2368.00
1645, 2368.00
1646, 2370.00
1647, 2372.00
1648, 2373.00
1649, 2375.00
1650, 2378.00

1750, 2888.00
1751, 2886.00
1752, 2885.00
1753, 2885.00
1754, 2887.00
1755, 2885.00
1756, 2886.00
1757, 2885.00
1758, 2887.00
1759, 2888.00
1760, 2886.00
1761, 2884.00
1762, 2885.00
1763, 2887.00
1764, 2886.00
1765, 2886.00
1766, 2884.00
1767, 2885.00
1768, 2884.00
1769, 2884.00
1770, 2882.00
1771, 2883.00
1772, 2882.00
1773, 2881.00
1774, 2881.00
1775, 2879.00
1776, 2880.00
1777, 2880.00
1778, 2879.00
1779, 2879.00
1780, 2875.00
1781, 2876.00
1782, 2876.00
1783, 2876.00
1784, 2875.00
1785, 2875.00
1786, 2874.00
1787, 2875.00
1788, 2873.00
1789, 2872.00
1790, 2869.00
1791, 2870.00
1792, 2870.00
1793, 2869.00
1794, 2869.00
1795, 2868.00
1796, 2868.00
1797, 2869.00
1798, 2869.00
1799, 2868.00
1800, 2865.00
1801, 2862.00
1802, 2864.00
1803, 2866.00
1804, 2863.00
1805, 2862.00
1806, 2863.00
1807, 2860.00
1808, 2863.00
1809, 2859.00
1810, 2859.00
1811, 2858.00
1812, 2859.00
1813, 2859.00
1814, 2858.00
1815, 2857.00
1816, 2857.00
1817, 2854.00
1818, 2853.00
1819, 2854.00
1820, 2852.00
1821, 2850.00
1822, 2849.00
1823, 2849.00
1824, 2844.00
1825, 2846.00
1826, 2845.00
1827, 2841.00
1828, 2844.00
1829, 2837.00
1830, 2839.00
1831, 2833.00
1832, 2832.00
1833, 2832.00
1834, 2827.00
1835, 2829.00
1836, 2825.00
1837, 2822.00
1838, 2821.00
1839, 2820.00
1840, 2816.00
1841, 2813.00
1842, 2812.00
1843, 2809.00
1844, 2805.00
1845, 2803.00
1846, 2800.00
1847, 2796.00
1848, 2793.00
1849, 2789.00
1850, 2787.00
1851, 2785.00
1852, 2783.00
1853, 2780.00
1854, 2775.00
1855, 2773.00
1856, 2770.00
1857, 2768.00
1858, 2765.00
1859, 2761.00
1860, 2759.00
1861, 2756.00
1862, 2754.00
1863, 2753.00
1864, 2751.00
1865, 2746.00
1866, 2744.00
1867, 2741.00
1868, 2741.00
1869, 2738.00
1870, 2736.00
1871, 2734.00
1872, 2732.00
1873, 2732.00
1874, 2730.00
1875, 2728.00
1876, 2727.00
1877, 2725.00
1878, 2723.00
1879, 2723.00
1880, 2722.00
1881, 2722.00
1882, 2720.00
1883, 2718.00
1884, 2717.00
1885, 2715.00
1886, 2715.00
1887, 2715.00
1888, 2714.00
1889, 2714.00
1890, 2714.00
1891, 2712.00
1892, 2711.00
1893, 2711.00
1894, 2710.00
1895, 2710.00
1896, 2709.00
1897, 2707.00
1898, 2709.00
1899, 2708.00
1900, 2707.00
1901, 2708.00
1902, 2705.00
1903, 2706.00
1904, 2706.00
1905, 2704.00
1906, 2704.00
1907, 2704.00
1908, 2704.00
1909, 2705.00
1910, 2702.00
1911, 2703.00
1912, 2704.00
1913, 2702.00
1914, 2703.00
1915, 2702.00
1916, 2704.00
1917, 2701.00
1918, 2704.00
1919, 2703.00
1920, 2702.00
1921, 2700.00
1922, 2702.00
1923, 2703.00
1924, 2702.00
1925, 2701.00
1926, 2701.00
1927, 2703.00
1928, 2702.00
1929, 2700.00
1930, 2701.00
1931, 2701.00
1932, 2701.00
1933, 2701.00
1934, 2703.00
1935, 2703.00
1936, 2702.00
1937, 2703.00
1938, 2702.00
1939, 2703.00
1940, 2702.00
1941, 2705.00
1942, 2704.00
1943, 2704.00
1944, 2706.00
1945, 2703.00
1946, 2705.00
1947, 2704.00
1948, 2707.00
1949, 2706.00
1950, 2706.00
1951, 2708.00
1952, 2708.00
1953, 2707.00
1954, 2708.00
1955, 2710.00
1956, 2709.00
1957, 2709.00
1958, 2711.00
1959, 2710.00
1960, 2711.00
1961, 2712.00
1962, 2713.00
1963, 2711.00
1964, 2713.00
1965, 2714.00
1966, 2715.00
1967, 2718.00
1968, 2715.00
1969, 2716.00
1970, 2717.00
1971, 2718.00
1972, 2719.00
1973, 2718.00
1974, 2719.00
1975, 2721.00
1976, 2720.00
1977, 2724.00
1978, 2723.00
1979, 2724.00
1980, 2725.00
1981, 2724.00
1982, 2725.00
1983, 2725.00
1984, 2726.00
1985, 2729.00
1986, 2729.00
1987, 2728.00
1988, 2730.00
1989, 2730.00
1990, 2732.00
1991, 2732.00
1992, 2733.00
1993, 2734.00
1994, 2734.00
1995, 2733.00
1996, 2737.00
1997, 2737.00
1998, 2735.00
1999, 2737.00
2000, 2737.00
2001, 2739.00
2002, 2739.00
2003, 2742.00
2004, 2741.00
2005, 2741.00
2006, 2744.00
2007, 2742.00
2008, 2744.00
2009, 2744.00
2010, 2743.00
2011, 2747.00
2012, 2747.00
2013, 2747.00
2014, 2747.00
2015, 2748.00
2016, 2749.00
2017, 2751.00
2018, 2752.00
2019, 2749.00
2020, 2752.00
2021, 2753.00
2022, 2754.00
2023, 2753.00
2024, 2755.00
2025, 2758.00
2026, 2755.00
2027, 2757.00
2028, 2755.00
2029, 2760.00
2030, 2760.00
2031, 2761.00
2032, 2763.00
2033, 2762.00
2034, 2762.00
2035, 2763.00
2036, 2766.00
2037, 2765.00
2038, 2767.00
2039, 2768.00
2040, 2767.00
2041, 2770.00
2042, 2771.00
2043, 2772.00
2044, 2772.00
2045, 2773.00
2046, 2775.00
2047, 2776.00
2048, 2777.00
2049, 2777.00
2050, 2779.00
2051, 2777.00
2052, 2779.00
2053, 2780.00
2054, 2781.00
2055, 2784.00
2056, 2784.00
2057, 2786.00
2058, 2787.00
2059, 2788.00
2060, 2789.00
2061, 2790.00
2062, 2791.00
2063, 2792.00
2064, 2795.00
2065, 2795.00
2066, 2796.00
2067, 2796.00
2068, 2798.00
2069, 2799.00
2070, 2798.00
2071, 2802.00
2072, 2801.00
2073, 2801.00
2074, 2803.00
2075, 2802.00
2076, 2807.00
2077, 2807.00
2078, 2808.00
2079, 2809.00
2080, 2811.00
2081, 2809.00
2082, 2810.00
2083, 2811.00
2084, 2813.00
2085, 2814.00
2086, 2815.00
2087, 2816.00
2088, 2817.00
2089, 2818.00
2090, 2817.00
2091, 2818.00
2092, 2819.00
2093, 2820.00
2094, 2819.00
2095, 2822.00
2096, 2823.00
2097, 2822.00
2098, 2823.00
2099, 2824.00
2100, 2825.00
2101, 2826.00
2102, 2824.00
2103, 2825.00
2104, 2827.00
2105, 2828.00
2106, 2829.00
2107, 2829.00
2108, 2829.00
2109, 2827.00
2110, 2831.00
2111, 2828.00
2112, 2831.00
2113, 2832.00
2114, 2832.00
2115, 2832.00
2116, 2834.00
2117, 2834.00
2118, 2833.00
2119, 2833.00
2120, 2835.00
2121, 2835.00
2122, 2835.00
2123, 2837.00
2124, 2837.00
2125, 2838.00
2126, 2836.00
2127, 2837.00
2128, 2838.00
2129, 2838.00
2130, 2840.00
2131, 2842.00
2132, 2839.00
2133, 2841.00
2134, 2840.00
2135, 2839.00
2136, 2841.00
2137, 2844.00
2138, 2843.00
2139, 2843.00
2140, 2844.00
2141, 2843.00
2142, 2844.00
2143, 2845.00
2144, 2843.00
2145, 2845.00
2146, 2845.00
2147, 2847.00
2148, 2846.00
2149, 2844.00
2150, 2845.00
