FW version: 24
Log Version: 3.0.3

General Info:
       Command/Macro Performed,            Timestamp,             Device ID, COM Port, UART/I2C, Test Name, Host Major, Host Minor, Host Revision, Host Git Commit
            Single_measurement,  2023_06_28_12_01_55,       Insight2_F4_xxx,    USB-C,      USB,          ,          0,          1,             1,      4031237645

Show Spectrometer Status:
l0_version, f4_version, battery_perc, battery_mVolt, accelerometer_temp, accelerometer_x, accelerometer_y, accelerometer_z, compass_temp, compass_x, compass_y, compass_z, lamp_0, lamp_1, gain_0, gain_1
        17,         24,           48,          1903,               6576,           65144,            1140,           18804,            0,     65407,     65534,     18813,   2457,   2457,      1,      1

Temperature Statistic Info:
NTC AVG [°C], NTC2 AVG [°C]
      40.381,        40.054

Statistic Info:
M1:  num,      min,      max,   median,      AVG,      STD,M2:  num,      min,      max,   median,      AVG,      STD
     301,   898.00,  1041.00,   928.00,   944.89,  43.8897,     401,  1312.00,  1389.00,  1341.00,  1345.16,  24.4989,

Measurements:
Wavelength, Data Amplitude
1350, 920.00
1351, 920.00
1352, 919.00
1353, 920.00
1354, 919.00
1355, 918.00
1356, 918.00
1357, 918.00
1358, 917.00
1359, 917.00
1360, 917.00
1361, 914.00
1362, 915.00
1363, 914.00
1364, 913.00
1365, 913.00
1366, 912.00
1367, 912.00
1368, 911.00
1369, 911.00
1370, 910.00
1371, 909.00
1372, 909.00
1373, 909.00
1374, 906.00
1375, 908.00
1376, 907.00
1377, 906.00
1378, 904.00
1379, 906.00
1380, 905.00
1381, 904.00
1382, 904.00
1383, 904.00
1384, 903.00
1385, 902.00
1386, 902.00
1387, 902.00
1388, 902.00
1389, 901.00
1390, 901.00
1391, 901.00
1392, 902.00
1393, 902.00
1394, 900.00
1395, 900.00
1396, 901.00
1397, 901.00
1398, 900.00
1399, 901.00
1400, 900.00
1401, 899.00
1402, 900.00
1403, 899.00
1404, 900.00
1405, 900.00
1406, 899.00
1407, 899.00
1408, 899.00
1409, 900.00
1410, 900.00
1411, 900.00
1412, 899.00
1413, 899.00
1414, 898.00
1415, 899.00
1416, 898.00
1417, 899.00
1418, 899.00
1419, 899.00
1420, 898.00
1421, 899.00
1422, 900.00
1423, 899.00
1424, 900.00
1425, 899.00
1426, 899.00
1427, 899.00
1428, 899.00
1429, 900.00
1430, 900.00
1431, 900.00
1432, 900.00
1433, 901.00
1434, 901.00
1435, 900.00
1436, 901.00
1437, 902.00
1438, 901.00
1439, 903.00
1440, 902.00
1441, 902.00
1442, 902.00
1443, 903.00
1444, 903.00
1445, 903.00
1446, 903.00
1447, 904.00
1448, 905.00
1449, 904.00
1450, 906.00
1451, 903.00
1452, 905.00
1453, 905.00
1454, 906.00
1455, 906.00
1456, 907.00
1457, 907.00
1458, 907.00
1459, 907.00
1460, 907.00
1461, 908.00
1462, 909.00
1463, 908.00
1464, 910.00
1465, 910.00
1466, 910.00
1467, 911.00
1468, 912.00
1469, 912.00
1470, 912.00
1471, 912.00
1472, 912.00
1473, 912.00
1474, 914.00
1475, 915.00
1476, 916.00
1477, 916.00
1478, 917.00
1479, 916.00
1480, 918.00
1481, 918.00
1482, 919.00
1483, 920.00
1484, 919.00
1485, 920.00
1486, 921.00
1487, 921.00
1488, 922.00
1489, 922.00
1490, 923.00
1491, 924.00
1492, 923.00
1493, 924.00
1494, 926.00
1495, 926.00
1496, 926.00
1497, 927.00
1498, 927.00
1499, 928.00
1500, 929.00
1501, 928.00
1502, 929.00
1503, 931.00
1504, 931.00
1505, 932.00
1506, 932.00
1507, 933.00
1508, 933.00
1509, 934.00
1510, 934.00
1511, 935.00
1512, 935.00
1513, 936.00
1514, 937.00
1515, 939.00
1516, 938.00
1517, 939.00
1518, 940.00
1519, 941.00
1520, 942.00
1521, 942.00
1522, 942.00
1523, 942.00
1524, 943.00
1525, 945.00
1526, 946.00
1527, 946.00
1528, 947.00
1529, 947.00
1530, 948.00
1531, 949.00
1532, 950.00
1533, 950.00
1534, 951.00
1535, 952.00
1536, 952.00
1537, 953.00
1538, 955.00
1539, 955.00
1540, 955.00
1541, 955.00
1542, 956.00
1543, 957.00
1544, 958.00
1545, 959.00
1546, 959.00
1547, 960.00
1548, 961.00
1549, 961.00
1550, 962.00
1551, 963.00
1552, 964.00
1553, 965.00
1554, 965.00
1555, 966.00
1556, 966.00
1557, 966.00
1558, 967.00
1559, 968.00
1560, 970.00
1561, 969.00
1562, 971.00
1563, 972.00
1564, 973.00
1565, 973.00
1566, 975.00
1567, 974.00
1568, 976.00
1569, 976.00
1570, 977.00
1571, 978.00
1572, 978.00
1573, 979.00
1574, 980.00
1575, 980.00
1576, 982.00
1577, 982.00
1578, 983.00
1579, 983.00
1580, 984.00
1581, 985.00
1582, 986.00
1583, 986.00
1584, 987.00
1585, 988.00
1586, 989.00
1587, 989.00
1588, 990.00
1589, 990.00
1590, 991.00
1591, 992.00
1592, 993.00
1593, 994.00
1594, 993.00
1595, 995.00
1596, 995.00
1597, 997.00
1598, 996.00
1599, 998.00
1600, 998.00
1601, 999.00
1602, 999.00
1603, 999.00
1604, 1002.00
1605, 1002.00
1606, 1003.00
1607, 1003.00
1608, 1004.00
1609, 1006.00
1610, 1007.00
1611, 1007.00
1612, 1007.00
1613, 1009.00
1614, 1009.00
1615, 1011.00
1616, 1012.00
1617, 1012.00
1618, 1014.00
1619, 1015.00
1620, 1015.00
1621, 1017.00
1622, 1017.00
1623, 1018.00
1624, 1019.00
1625, 1020.00
1626, 1021.00
1627, 1022.00
1628, 1023.00
1629, 1024.00
1630, 1024.00
1631, 1025.00
1632, 1026.00
1633, 1027.00
1634, 1028.00
1635, 1028.00
1636, 1029.00
1637, 1030.00
1638, 1030.00
1639, 1032.00
1640, 1032.00
1641, 1033.00
1642, 1034.00
1643, 1034.00
1644, 1035.00
1645, 1036.00
1646, 1036.00
1647, 1037.00
1648, 1039.00
1649, 1039.00
1650, 1041.00

1750, 1387.00
1751, 1386.00
1752, 1388.00
1753, 1387.00
1754, 1387.00
1755, 1387.00
1756, 1384.00
1757, 1387.00
1758, 1389.00
1759, 1387.00
1760, 1387.00
1761, 1386.00
1762, 1388.00
1763, 1385.00
1764, 1387.00
1765, 1386.00
1766, 1384.00
1767, 1386.00
1768, 1385.00
1769, 1384.00
1770, 1387.00
1771, 1385.00
1772, 1385.00
1773, 1385.00
1774, 1386.00
1775, 1385.00
1776, 1384.00
1777, 1382.00
1778, 1385.00
1779, 1384.00
1780, 1385.00
1781, 1383.00
1782, 1384.00
1783, 1384.00
1784, 1383.00
1785, 1383.00
1786, 1381.00
1787, 1382.00
1788, 1382.00
1789, 1381.00
1790, 1380.00
1791, 1379.00
1792, 1380.00
1793, 1380.00
1794, 1378.00
1795, 1381.00
1796, 1379.00
1797, 1381.00
1798, 1380.00
1799, 1378.00
1800, 1379.00
1801, 1378.00
1802, 1379.00
1803, 1377.00
1804, 1377.00
1805, 1378.00
1806, 1377.00
1807, 1377.00
1808, 1379.00
1809, 1376.00
1810, 1376.00
1811, 1377.00
1812, 1376.00
1813, 1374.00
1814, 1373.00
1815, 1373.00
1816, 1374.00
1817, 1376.00
1818, 1372.00
1819, 1374.00
1820, 1371.00
1821, 1370.00
1822, 1371.00
1823, 1370.00
1824, 1371.00
1825, 1369.00
1826, 1368.00
1827, 1367.00
1828, 1368.00
1829, 1366.00
1830, 1365.00
1831, 1365.00
1832, 1364.00
1833, 1364.00
1834, 1364.00
1835, 1361.00
1836, 1360.00
1837, 1362.00
1838, 1360.00
1839, 1356.00
1840, 1357.00
1841, 1355.00
1842, 1354.00
1843, 1352.00
1844, 1353.00
1845, 1350.00
1846, 1350.00
1847, 1348.00
1848, 1349.00
1849, 1346.00
1850, 1345.00
1851, 1344.00
1852, 1341.00
1853, 1341.00
1854, 1341.00
1855, 1340.00
1856, 1339.00
1857, 1339.00
1858, 1335.00
1859, 1337.00
1860, 1335.00
1861, 1336.00
1862, 1332.00
1863, 1331.00
1864, 1330.00
1865, 1330.00
1866, 1328.00
1867, 1329.00
1868, 1326.00
1869, 1326.00
1870, 1326.00
1871, 1327.00
1872, 1323.00
1873, 1325.00
1874, 1324.00
1875, 1324.00
1876, 1322.00
1877, 1323.00
1878, 1319.00
1879, 1323.00
1880, 1321.00
1881, 1322.00
1882, 1319.00
1883, 1320.00
1884, 1321.00
1885, 1319.00
1886, 1320.00
1887, 1319.00
1888, 1318.00
1889, 1319.00
1890, 1316.00
1891, 1318.00
1892, 1317.00
1893, 1318.00
1894, 1320.00
1895, 1317.00
1896, 1315.00
1897, 1317.00
1898, 1317.00
1899, 1314.00
1900, 1315.00
1901, 1317.00
1902, 1315.00
1903, 1316.00
1904, 1315.00
1905, 1316.00
1906, 1316.00
1907, 1314.00
1908, 1314.00
1909, 1314.00
1910, 1314.00
1911, 1313.00
1912, 1314.00
1913, 1316.00
1914, 1314.00
1915, 1315.00
1916, 1315.00
1917, 1312.00
1918, 1314.00
1919, 1313.00
1920, 1313.00
1921, 1313.00
1922, 1313.00
1923, 1313.00
1924, 1316.00
1925, 1313.00
1926, 1316.00
1927, 1314.00
1928, 1313.00
1929, 1313.00
1930, 1314.00
1931, 1314.00
1932, 1316.00
1933, 1314.00
1934, 1313.00
1935, 1314.00
1936, 1315.00
1937, 1313.00
1938, 1313.00
1939, 1314.00
1940, 1315.00
1941, 1314.00
1942, 1315.00
1943, 1312.00
1944, 1315.00
1945, 1315.00
1946, 1315.00
1947, 1314.00
1948, 1315.00
1949, 1314.00
1950, 1315.00
1951, 1317.00
1952, 1314.00
1953, 1315.00
1954, 1316.00
1955, 1318.00
1956, 1316.00
1957, 1317.00
1958, 1317.00
1959, 1317.00
1960, 1316.00
1961, 1318.00
1962, 1317.00
1963, 1317.00
1964, 1319.00
1965, 1317.00
1966, 1317.00
1967, 1319.00
1968, 1318.00
1969, 1317.00
1970, 1319.00
1971, 1317.00
1972, 1320.00
1973, 1320.00
1974, 1319.00
1975, 1320.00
1976, 1320.00
1977, 1320.00
1978, 1321.00
1979, 1320.00
1980, 1321.00
1981, 1322.00
1982, 1321.00
1983, 1321.00
1984, 1320.00
1985, 1322.00
1986, 1322.00
1987, 1324.00
1988, 1322.00
1989, 1323.00
1990, 1323.00
1991, 1325.00
1992, 1323.00
1993, 1324.00
1994, 1324.00
1995, 1324.00
1996, 1326.00
1997, 1325.00
1998, 1326.00
1999, 1327.00
2000, 1326.00
2001, 1328.00
2002, 1328.00
2003, 1327.00
2004, 1327.00
2005, 1327.00
2006, 1326.00
2007, 1329.00
2008, 1327.00
2009, 1329.00
2010, 1327.00
2011, 1328.00
2012, 1329.00
2013, 1330.00
2014, 1331.00
2015, 1328.00
2016, 1331.00
2017, 1331.00
2018, 1331.00
2019, 1332.00
2020, 1333.00
2021, 1332.00
2022, 1332.00
2023, 1332.00
2024, 1331.00
2025, 1332.00
2026, 1333.00
2027, 1334.00
2028, 1333.00
2029, 1333.00
2030, 1335.00
2031, 1336.00
2032, 1335.00
2033, 1335.00
2034, 1336.00
2035, 1336.00
2036, 1336.00
2037, 1336.00
2038, 1336.00
2039, 1337.00
2040, 1338.00
2041, 1339.00
2042, 1338.00
2043, 1339.00
2044, 1338.00
2045, 1339.00
2046, 1338.00
2047, 1339.00
2048, 1339.00
2049, 1340.00
2050, 1340.00
2051, 1341.00
2052, 1339.00
2053, 1342.00
2054, 1344.00
2055, 1344.00
2056, 1343.00
2057, 1343.00
2058, 1345.00
2059, 1346.00
2060, 1346.00
2061, 1345.00
2062, 1346.00
2063, 1345.00
2064, 1347.00
2065, 1348.00
2066, 1349.00
2067, 1349.00
2068, 1349.00
2069, 1350.00
2070, 1350.00
2071, 1351.00
2072, 1351.00
2073, 1350.00
2074, 1352.00
2075, 1350.00
2076, 1352.00
2077, 1352.00
2078, 1352.00
2079, 1353.00
2080, 1353.00
2081, 1354.00
2082, 1353.00
2083, 1353.00
2084, 1355.00
2085, 1356.00
2086, 1356.00
2087, 1355.00
2088, 1358.00
2089, 1356.00
2090, 1356.00
2091, 1357.00
2092, 1358.00
2093, 1359.00
2094, 1358.00
2095, 1358.00
2096, 1358.00
2097, 1360.00
2098, 1360.00
2099, 1360.00
2100, 1361.00
2101, 1363.00
2102, 1360.00
2103, 1362.00
2104, 1363.00
2105, 1361.00
2106, 1363.00
2107, 1361.00
2108, 1363.00
2109, 1361.00
2110, 1363.00
2111, 1363.00
2112, 1364.00
2113, 1363.00
2114, 1364.00
2115, 1364.00
2116, 1365.00
2117, 1365.00
2118, 1364.00
2119, 1363.00
2120, 1366.00
2121, 1364.00
2122, 1365.00
2123, 1364.00
2124, 1362.00
2125, 1363.00
2126, 1365.00
2127, 1367.00
2128, 1368.00
2129, 1366.00
2130, 1369.00
2131, 1367.00
2132, 1368.00
2133, 1367.00
2134, 1368.00
2135, 1368.00
2136, 1367.00
2137, 1367.00
2138, 1371.00
2139, 1369.00
2140, 1370.00
2141, 1369.00
2142, 1369.00
2143, 1369.00
2144, 1368.00
2145, 1369.00
2146, 1371.00
2147, 1370.00
2148, 1372.00
2149, 1371.00
2150, 1371.00
