FW version: 24
Log Version: 3.0.3

General Info:
       Command/Macro Performed,            Timestamp,             Device ID, COM Port, UART/I2C, Test Name, Host Major, Host Minor, Host Revision, Host Git Commit
            Single_measurement,  2023_06_29_10_40_33,       Insight2_F4_xxx,    USB-C,      USB,          ,          0,          1,             1,      4031237645

Show Spectrometer Status:
l0_version, f4_version, battery_perc, battery_mVolt, accelerometer_temp, accelerometer_x, accelerometer_y, accelerometer_z, compass_temp, compass_x, compass_y, compass_z, lamp_0, lamp_1, gain_0, gain_1
        17,         24,           92,          2063,               5744,           65468,              44,           18392,            0,     65533,     65404,     65528,   2457,   2457,      1,      1

Temperature Statistic Info:
NTC AVG [°C], NTC2 AVG [°C]
      36.976,        36.665

Statistic Info:
M1:  num,      min,      max,   median,      AVG,      STD,M2:  num,      min,      max,   median,      AVG,      STD
     301,   907.00,  1037.00,   935.00,   949.71,  40.1785,     401,  1303.00,  1379.00,  1335.00,  1337.21,  24.9235,

Measurements:
Wavelength, Data Amplitude
1350, 927.00
1351, 927.00
1352, 925.00
1353, 926.00
1354, 925.00
1355, 925.00
1356, 925.00
1357, 923.00
1358, 924.00
1359, 924.00
1360, 923.00
1361, 922.00
1362, 922.00
1363, 923.00
1364, 921.00
1365, 921.00
1366, 920.00
1367, 919.00
1368, 920.00
1369, 918.00
1370, 919.00
1371, 918.00
1372, 917.00
1373, 916.00
1374, 916.00
1375, 915.00
1376, 915.00
1377, 914.00
1378, 914.00
1379, 914.00
1380, 914.00
1381, 913.00
1382, 911.00
1383, 912.00
1384, 912.00
1385, 912.00
1386, 911.00
1387, 911.00
1388, 911.00
1389, 910.00
1390, 910.00
1391, 909.00
1392, 910.00
1393, 910.00
1394, 909.00
1395, 909.00
1396, 910.00
1397, 909.00
1398, 908.00
1399, 908.00
1400, 908.00
1401, 909.00
1402, 908.00
1403, 908.00
1404, 908.00
1405, 908.00
1406, 908.00
1407, 909.00
1408, 908.00
1409, 907.00
1410, 908.00
1411, 908.00
1412, 908.00
1413, 908.00
1414, 908.00
1415, 907.00
1416, 907.00
1417, 908.00
1418, 908.00
1419, 907.00
1420, 908.00
1421, 909.00
1422, 907.00
1423, 907.00
1424, 907.00
1425, 908.00
1426, 907.00
1427, 908.00
1428, 908.00
1429, 908.00
1430, 908.00
1431, 909.00
1432, 907.00
1433, 909.00
1434, 909.00
1435, 909.00
1436, 910.00
1437, 908.00
1438, 909.00
1439, 909.00
1440, 910.00
1441, 911.00
1442, 910.00
1443, 911.00
1444, 910.00
1445, 911.00
1446, 912.00
1447, 912.00
1448, 912.00
1449, 912.00
1450, 912.00
1451, 912.00
1452, 913.00
1453, 913.00
1454, 913.00
1455, 913.00
1456, 914.00
1457, 913.00
1458, 915.00
1459, 914.00
1460, 916.00
1461, 916.00
1462, 917.00
1463, 917.00
1464, 917.00
1465, 917.00
1466, 918.00
1467, 918.00
1468, 919.00
1469, 919.00
1470, 919.00
1471, 920.00
1472, 920.00
1473, 921.00
1474, 922.00
1475, 922.00
1476, 923.00
1477, 923.00
1478, 923.00
1479, 924.00
1480, 924.00
1481, 925.00
1482, 925.00
1483, 927.00
1484, 927.00
1485, 927.00
1486, 928.00
1487, 928.00
1488, 928.00
1489, 929.00
1490, 929.00
1491, 930.00
1492, 931.00
1493, 931.00
1494, 932.00
1495, 933.00
1496, 933.00
1497, 933.00
1498, 934.00
1499, 934.00
1500, 935.00
1501, 936.00
1502, 935.00
1503, 937.00
1504, 938.00
1505, 938.00
1506, 938.00
1507, 939.00
1508, 940.00
1509, 941.00
1510, 941.00
1511, 941.00
1512, 942.00
1513, 943.00
1514, 944.00
1515, 944.00
1516, 944.00
1517, 945.00
1518, 945.00
1519, 947.00
1520, 947.00
1521, 948.00
1522, 947.00
1523, 949.00
1524, 949.00
1525, 950.00
1526, 951.00
1527, 951.00
1528, 952.00
1529, 952.00
1530, 953.00
1531, 954.00
1532, 954.00
1533, 955.00
1534, 956.00
1535, 957.00
1536, 957.00
1537, 958.00
1538, 959.00
1539, 959.00
1540, 959.00
1541, 960.00
1542, 961.00
1543, 962.00
1544, 962.00
1545, 963.00
1546, 963.00
1547, 964.00
1548, 965.00
1549, 965.00
1550, 966.00
1551, 966.00
1552, 967.00
1553, 967.00
1554, 968.00
1555, 969.00
1556, 970.00
1557, 971.00
1558, 971.00
1559, 972.00
1560, 972.00
1561, 973.00
1562, 974.00
1563, 974.00
1564, 975.00
1565, 975.00
1566, 976.00
1567, 977.00
1568, 978.00
1569, 978.00
1570, 979.00
1571, 980.00
1572, 980.00
1573, 980.00
1574, 981.00
1575, 982.00
1576, 983.00
1577, 984.00
1578, 984.00
1579, 985.00
1580, 986.00
1581, 987.00
1582, 987.00
1583, 987.00
1584, 988.00
1585, 989.00
1586, 989.00
1587, 990.00
1588, 991.00
1589, 991.00
1590, 992.00
1591, 994.00
1592, 994.00
1593, 994.00
1594, 995.00
1595, 994.00
1596, 996.00
1597, 998.00
1598, 997.00
1599, 998.00
1600, 999.00
1601, 998.00
1602, 999.00
1603, 1000.00
1604, 1001.00
1605, 1002.00
1606, 1003.00
1607, 1003.00
1608, 1004.00
1609, 1004.00
1610, 1006.00
1611, 1006.00
1612, 1007.00
1613, 1008.00
1614, 1009.00
1615, 1010.00
1616, 1011.00
1617, 1011.00
1618, 1012.00
1619, 1013.00
1620, 1013.00
1621, 1015.00
1622, 1016.00
1623, 1017.00
1624, 1017.00
1625, 1018.00
1626, 1019.00
1627, 1019.00
1628, 1021.00
1629, 1021.00
1630, 1021.00
1631, 1024.00
1632, 1025.00
1633, 1025.00
1634, 1025.00
1635, 1026.00
1636, 1027.00
1637, 1027.00
1638, 1029.00
1639, 1029.00
1640, 1029.00
1641, 1030.00
1642, 1032.00
1643, 1032.00
1644, 1032.00
1645, 1032.00
1646, 1034.00
1647, 1034.00
1648, 1035.00
1649, 1036.00
1650, 1037.00

1750, 1378.00
1751, 1378.00
1752, 1378.00
1753, 1377.00
1754, 1378.00
1755, 1378.00
1756, 1378.00
1757, 1379.00
1758, 1377.00
1759, 1378.00
1760, 1377.00
1761, 1377.00
1762, 1379.00
1763, 1378.00
1764, 1375.00
1765, 1376.00
1766, 1377.00
1767, 1378.00
1768, 1375.00
1769, 1377.00
1770, 1377.00
1771, 1378.00
1772, 1376.00
1773, 1376.00
1774, 1377.00
1775, 1376.00
1776, 1375.00
1777, 1375.00
1778, 1376.00
1779, 1374.00
1780, 1376.00
1781, 1374.00
1782, 1376.00
1783, 1374.00
1784, 1374.00
1785, 1374.00
1786, 1372.00
1787, 1374.00
1788, 1373.00
1789, 1372.00
1790, 1373.00
1791, 1372.00
1792, 1370.00
1793, 1371.00
1794, 1373.00
1795, 1371.00
1796, 1371.00
1797, 1369.00
1798, 1370.00
1799, 1371.00
1800, 1370.00
1801, 1371.00
1802, 1368.00
1803, 1369.00
1804, 1370.00
1805, 1367.00
1806, 1367.00
1807, 1369.00
1808, 1369.00
1809, 1369.00
1810, 1367.00
1811, 1366.00
1812, 1366.00
1813, 1367.00
1814, 1366.00
1815, 1366.00
1816, 1365.00
1817, 1365.00
1818, 1364.00
1819, 1365.00
1820, 1365.00
1821, 1366.00
1822, 1363.00
1823, 1362.00
1824, 1363.00
1825, 1362.00
1826, 1361.00
1827, 1361.00
1828, 1361.00
1829, 1359.00
1830, 1359.00
1831, 1357.00
1832, 1358.00
1833, 1355.00
1834, 1354.00
1835, 1353.00
1836, 1353.00
1837, 1353.00
1838, 1352.00
1839, 1350.00
1840, 1351.00
1841, 1348.00
1842, 1349.00
1843, 1345.00
1844, 1345.00
1845, 1346.00
1846, 1342.00
1847, 1341.00
1848, 1341.00
1849, 1340.00
1850, 1339.00
1851, 1338.00
1852, 1336.00
1853, 1335.00
1854, 1334.00
1855, 1334.00
1856, 1329.00
1857, 1331.00
1858, 1329.00
1859, 1328.00
1860, 1328.00
1861, 1326.00
1862, 1325.00
1863, 1323.00
1864, 1322.00
1865, 1323.00
1866, 1321.00
1867, 1321.00
1868, 1321.00
1869, 1319.00
1870, 1317.00
1871, 1315.00
1872, 1317.00
1873, 1316.00
1874, 1314.00
1875, 1315.00
1876, 1314.00
1877, 1314.00
1878, 1312.00
1879, 1314.00
1880, 1312.00
1881, 1311.00
1882, 1312.00
1883, 1311.00
1884, 1311.00
1885, 1312.00
1886, 1312.00
1887, 1309.00
1888, 1308.00
1889, 1309.00
1890, 1310.00
1891, 1307.00
1892, 1308.00
1893, 1307.00
1894, 1308.00
1895, 1307.00
1896, 1307.00
1897, 1306.00
1898, 1306.00
1899, 1307.00
1900, 1307.00
1901, 1307.00
1902, 1307.00
1903, 1307.00
1904, 1306.00
1905, 1306.00
1906, 1305.00
1907, 1306.00
1908, 1305.00
1909, 1305.00
1910, 1305.00
1911, 1305.00
1912, 1305.00
1913, 1304.00
1914, 1304.00
1915, 1303.00
1916, 1304.00
1917, 1303.00
1918, 1305.00
1919, 1304.00
1920, 1304.00
1921, 1305.00
1922, 1306.00
1923, 1304.00
1924, 1304.00
1925, 1306.00
1926, 1305.00
1927, 1304.00
1928, 1305.00
1929, 1304.00
1930, 1305.00
1931, 1304.00
1932, 1306.00
1933, 1305.00
1934, 1304.00
1935, 1304.00
1936, 1304.00
1937, 1304.00
1938, 1304.00
1939, 1305.00
1940, 1304.00
1941, 1304.00
1942, 1305.00
1943, 1304.00
1944, 1305.00
1945, 1306.00
1946, 1305.00
1947, 1305.00
1948, 1305.00
1949, 1306.00
1950, 1306.00
1951, 1309.00
1952, 1306.00
1953, 1308.00
1954, 1305.00
1955, 1308.00
1956, 1307.00
1957, 1305.00
1958, 1308.00
1959, 1307.00
1960, 1307.00
1961, 1309.00
1962, 1307.00
1963, 1307.00
1964, 1308.00
1965, 1309.00
1966, 1308.00
1967, 1309.00
1968, 1310.00
1969, 1311.00
1970, 1311.00
1971, 1311.00
1972, 1312.00
1973, 1311.00
1974, 1309.00
1975, 1312.00
1976, 1312.00
1977, 1313.00
1978, 1312.00
1979, 1312.00
1980, 1313.00
1981, 1312.00
1982, 1313.00
1983, 1315.00
1984, 1314.00
1985, 1314.00
1986, 1314.00
1987, 1316.00
1988, 1315.00
1989, 1315.00
1990, 1316.00
1991, 1315.00
1992, 1316.00
1993, 1315.00
1994, 1317.00
1995, 1317.00
1996, 1318.00
1997, 1318.00
1998, 1317.00
1999, 1320.00
2000, 1318.00
2001, 1318.00
2002, 1318.00
2003, 1320.00
2004, 1320.00
2005, 1321.00
2006, 1321.00
2007, 1319.00
2008, 1320.00
2009, 1321.00
2010, 1319.00
2011, 1320.00
2012, 1320.00
2013, 1320.00
2014, 1321.00
2015, 1322.00
2016, 1320.00
2017, 1323.00
2018, 1322.00
2019, 1323.00
2020, 1324.00
2021, 1323.00
2022, 1322.00
2023, 1323.00
2024, 1324.00
2025, 1326.00
2026, 1326.00
2027, 1326.00
2028, 1325.00
2029, 1327.00
2030, 1326.00
2031, 1329.00
2032, 1327.00
2033, 1328.00
2034, 1328.00
2035, 1328.00
2036, 1326.00
2037, 1329.00
2038, 1331.00
2039, 1331.00
2040, 1330.00
2041, 1330.00
2042, 1332.00
2043, 1331.00
2044, 1332.00
2045, 1330.00
2046, 1332.00
2047, 1333.00
2048, 1333.00
2049, 1333.00
2050, 1333.00
2051, 1333.00
2052, 1335.00
2053, 1336.00
2054, 1335.00
2055, 1335.00
2056, 1337.00
2057, 1336.00
2058, 1338.00
2059, 1337.00
2060, 1338.00
2061, 1338.00
2062, 1338.00
2063, 1341.00
2064, 1341.00
2065, 1339.00
2066, 1340.00
2067, 1342.00
2068, 1343.00
2069, 1341.00
2070, 1345.00
2071, 1342.00
2072, 1341.00
2073, 1344.00
2074, 1345.00
2075, 1345.00
2076, 1345.00
2077, 1345.00
2078, 1347.00
2079, 1347.00
2080, 1347.00
2081, 1348.00
2082, 1348.00
2083, 1348.00
2084, 1348.00
2085, 1348.00
2086, 1350.00
2087, 1351.00
2088, 1350.00
2089, 1350.00
2090, 1350.00
2091, 1350.00
2092, 1351.00
2093, 1352.00
2094, 1351.00
2095, 1353.00
2096, 1352.00
2097, 1352.00
2098, 1353.00
2099, 1353.00
2100, 1354.00
2101, 1354.00
2102, 1354.00
2103, 1355.00
2104, 1355.00
2105, 1356.00
2106, 1358.00
2107, 1356.00
2108, 1357.00
2109, 1356.00
2110, 1357.00
2111, 1356.00
2112, 1357.00
2113, 1355.00
2114, 1356.00
2115, 1358.00
2116, 1359.00
2117, 1356.00
2118, 1357.00
2119, 1360.00
2120, 1359.00
2121, 1359.00
2122, 1359.00
2123, 1359.00
2124, 1359.00
2125, 1360.00
2126, 1360.00
2127, 1359.00
2128, 1359.00
2129, 1361.00
2130, 1360.00
2131, 1361.00
2132, 1361.00
2133, 1360.00
2134, 1361.00
2135, 1363.00
2136, 1361.00
2137, 1361.00
2138, 1363.00
2139, 1362.00
2140, 1364.00
2141, 1362.00
2142, 1364.00
2143, 1363.00
2144, 1364.00
2145, 1363.00
2146, 1363.00
2147, 1363.00
2148, 1365.00
2149, 1365.00
2150, 1364.00
