FW version: 24
Log Version: 3.0.3

General Info:
       Command/Macro Performed,            Timestamp,             Device ID, COM Port, UART/I2C, Test Name, Host Major, Host Minor, Host Revision, Host Git Commit
            Single_measurement,  2023_06_29_10_40_41,       Insight2_F4_xxx,    USB-C,      USB,          ,          0,          1,             1,      4031237645

Show Spectrometer Status:
l0_version, f4_version, battery_perc, battery_mVolt, accelerometer_temp, accelerometer_x, accelerometer_y, accelerometer_z, compass_temp, compass_x, compass_y, compass_z, lamp_0, lamp_1, gain_0, gain_1
        17,         24,           92,          2060,               5776,           65504,              48,           18456,            0,     65517,     65394,     65438,   2457,   2457,      1,      1

Temperature Statistic Info:
NTC AVG [°C], NTC2 AVG [°C]
      37.063,        36.750

Statistic Info:
M1:  num,      min,      max,   median,      AVG,      STD,M2:  num,      min,      max,   median,      AVG,      STD
     301,   906.00,  1036.00,   934.00,   948.97,  40.1888,     401,  1302.00,  1379.00,  1335.00,  1336.41,  24.9580,

Measurements:
Wavelength, Data Amplitude
1350, 926.00
1351, 926.00
1352, 926.00
1353, 925.00
1354, 924.00
1355, 924.00
1356, 924.00
1357, 923.00
1358, 923.00
1359, 922.00
1360, 923.00
1361, 922.00
1362, 922.00
1363, 921.00
1364, 920.00
1365, 919.00
1366, 919.00
1367, 920.00
1368, 919.00
1369, 917.00
1370, 917.00
1371, 917.00
1372, 916.00
1373, 915.00
1374, 915.00
1375, 914.00
1376, 915.00
1377, 914.00
1378, 913.00
1379, 913.00
1380, 912.00
1381, 912.00
1382, 912.00
1383, 912.00
1384, 912.00
1385, 912.00
1386, 910.00
1387, 910.00
1388, 910.00
1389, 909.00
1390, 909.00
1391, 909.00
1392, 910.00
1393, 908.00
1394, 908.00
1395, 907.00
1396, 909.00
1397, 908.00
1398, 908.00
1399, 908.00
1400, 908.00
1401, 908.00
1402, 907.00
1403, 908.00
1404, 908.00
1405, 908.00
1406, 907.00
1407, 907.00
1408, 907.00
1409, 906.00
1410, 907.00
1411, 907.00
1412, 907.00
1413, 908.00
1414, 906.00
1415, 907.00
1416, 906.00
1417, 908.00
1418, 907.00
1419, 907.00
1420, 907.00
1421, 906.00
1422, 906.00
1423, 906.00
1424, 908.00
1425, 907.00
1426, 907.00
1427, 907.00
1428, 907.00
1429, 908.00
1430, 908.00
1431, 907.00
1432, 907.00
1433, 908.00
1434, 908.00
1435, 909.00
1436, 908.00
1437, 908.00
1438, 910.00
1439, 909.00
1440, 909.00
1441, 910.00
1442, 910.00
1443, 911.00
1444, 910.00
1445, 911.00
1446, 911.00
1447, 911.00
1448, 912.00
1449, 911.00
1450, 912.00
1451, 912.00
1452, 913.00
1453, 913.00
1454, 913.00
1455, 913.00
1456, 913.00
1457, 914.00
1458, 914.00
1459, 915.00
1460, 914.00
1461, 915.00
1462, 915.00
1463, 916.00
1464, 917.00
1465, 917.00
1466, 917.00
1467, 917.00
1468, 917.00
1469, 918.00
1470, 919.00
1471, 919.00
1472, 920.00
1473, 919.00
1474, 920.00
1475, 921.00
1476, 921.00
1477, 923.00
1478, 922.00
1479, 922.00
1480, 923.00
1481, 925.00
1482, 925.00
1483, 925.00
1484, 925.00
1485, 926.00
1486, 927.00
1487, 927.00
1488, 927.00
1489, 928.00
1490, 928.00
1491, 929.00
1492, 930.00
1493, 930.00
1494, 931.00
1495, 932.00
1496, 933.00
1497, 933.00
1498, 933.00
1499, 933.00
1500, 934.00
1501, 934.00
1502, 935.00
1503, 936.00
1504, 937.00
1505, 938.00
1506, 938.00
1507, 938.00
1508, 939.00
1509, 940.00
1510, 940.00
1511, 940.00
1512, 942.00
1513, 942.00
1514, 942.00
1515, 943.00
1516, 944.00
1517, 944.00
1518, 945.00
1519, 945.00
1520, 947.00
1521, 947.00
1522, 947.00
1523, 948.00
1524, 949.00
1525, 949.00
1526, 950.00
1527, 950.00
1528, 951.00
1529, 952.00
1530, 952.00
1531, 953.00
1532, 954.00
1533, 954.00
1534, 955.00
1535, 956.00
1536, 956.00
1537, 957.00
1538, 958.00
1539, 959.00
1540, 958.00
1541, 959.00
1542, 959.00
1543, 959.00
1544, 962.00
1545, 961.00
1546, 963.00
1547, 963.00
1548, 964.00
1549, 964.00
1550, 965.00
1551, 965.00
1552, 966.00
1553, 967.00
1554, 968.00
1555, 969.00
1556, 969.00
1557, 970.00
1558, 970.00
1559, 971.00
1560, 971.00
1561, 972.00
1562, 973.00
1563, 975.00
1564, 974.00
1565, 975.00
1566, 976.00
1567, 976.00
1568, 977.00
1569, 977.00
1570, 978.00
1571, 979.00
1572, 979.00
1573, 980.00
1574, 981.00
1575, 982.00
1576, 982.00
1577, 984.00
1578, 984.00
1579, 983.00
1580, 985.00
1581, 986.00
1582, 986.00
1583, 987.00
1584, 987.00
1585, 988.00
1586, 989.00
1587, 989.00
1588, 990.00
1589, 990.00
1590, 991.00
1591, 993.00
1592, 991.00
1593, 993.00
1594, 994.00
1595, 995.00
1596, 995.00
1597, 995.00
1598, 997.00
1599, 997.00
1600, 997.00
1601, 998.00
1602, 999.00
1603, 1000.00
1604, 1001.00
1605, 1001.00
1606, 1002.00
1607, 1002.00
1608, 1002.00
1609, 1004.00
1610, 1005.00
1611, 1006.00
1612, 1007.00
1613, 1007.00
1614, 1008.00
1615, 1009.00
1616, 1010.00
1617, 1011.00
1618, 1012.00
1619, 1013.00
1620, 1013.00
1621, 1015.00
1622, 1015.00
1623, 1015.00
1624, 1015.00
1625, 1018.00
1626, 1018.00
1627, 1018.00
1628, 1020.00
1629, 1021.00
1630, 1023.00
1631, 1023.00
1632, 1024.00
1633, 1024.00
1634, 1024.00
1635, 1024.00
1636, 1026.00
1637, 1027.00
1638, 1028.00
1639, 1029.00
1640, 1029.00
1641, 1030.00
1642, 1030.00
1643, 1031.00
1644, 1031.00
1645, 1033.00
1646, 1034.00
1647, 1034.00
1648, 1034.00
1649, 1035.00
1650, 1036.00

1750, 1375.00
1751, 1376.00
1752, 1377.00
1753, 1376.00
1754, 1377.00
1755, 1379.00
1756, 1375.00
1757, 1379.00
1758, 1376.00
1759, 1377.00
1760, 1377.00
1761, 1377.00
1762, 1377.00
1763, 1376.00
1764, 1376.00
1765, 1376.00
1766, 1377.00
1767, 1379.00
1768, 1376.00
1769, 1377.00
1770, 1377.00
1771, 1377.00
1772, 1377.00
1773, 1376.00
1774, 1376.00
1775, 1375.00
1776, 1374.00
1777, 1373.00
1778, 1374.00
1779, 1375.00
1780, 1374.00
1781, 1373.00
1782, 1373.00
1783, 1374.00
1784, 1372.00
1785, 1373.00
1786, 1373.00
1787, 1372.00
1788, 1373.00
1789, 1371.00
1790, 1371.00
1791, 1371.00
1792, 1370.00
1793, 1372.00
1794, 1370.00
1795, 1371.00
1796, 1370.00
1797, 1370.00
1798, 1369.00
1799, 1370.00
1800, 1368.00
1801, 1369.00
1802, 1368.00
1803, 1366.00
1804, 1369.00
1805, 1368.00
1806, 1367.00
1807, 1366.00
1808, 1367.00
1809, 1368.00
1810, 1368.00
1811, 1367.00
1812, 1367.00
1813, 1367.00
1814, 1365.00
1815, 1367.00
1816, 1365.00
1817, 1364.00
1818, 1364.00
1819, 1365.00
1820, 1364.00
1821, 1361.00
1822, 1363.00
1823, 1360.00
1824, 1362.00
1825, 1361.00
1826, 1359.00
1827, 1361.00
1828, 1358.00
1829, 1360.00
1830, 1358.00
1831, 1355.00
1832, 1357.00
1833, 1354.00
1834, 1355.00
1835, 1355.00
1836, 1353.00
1837, 1352.00
1838, 1353.00
1839, 1350.00
1840, 1350.00
1841, 1350.00
1842, 1347.00
1843, 1347.00
1844, 1345.00
1845, 1344.00
1846, 1343.00
1847, 1343.00
1848, 1340.00
1849, 1338.00
1850, 1338.00
1851, 1338.00
1852, 1336.00
1853, 1335.00
1854, 1332.00
1855, 1331.00
1856, 1331.00
1857, 1331.00
1858, 1330.00
1859, 1327.00
1860, 1324.00
1861, 1325.00
1862, 1325.00
1863, 1324.00
1864, 1321.00
1865, 1321.00
1866, 1320.00
1867, 1318.00
1868, 1319.00
1869, 1318.00
1870, 1319.00
1871, 1318.00
1872, 1315.00
1873, 1315.00
1874, 1316.00
1875, 1315.00
1876, 1313.00
1877, 1313.00
1878, 1311.00
1879, 1311.00
1880, 1311.00
1881, 1311.00
1882, 1310.00
1883, 1310.00
1884, 1309.00
1885, 1310.00
1886, 1309.00
1887, 1310.00
1888, 1310.00
1889, 1309.00
1890, 1306.00
1891, 1306.00
1892, 1308.00
1893, 1307.00
1894, 1306.00
1895, 1307.00
1896, 1306.00
1897, 1307.00
1898, 1308.00
1899, 1306.00
1900, 1305.00
1901, 1306.00
1902, 1305.00
1903, 1306.00
1904, 1304.00
1905, 1304.00
1906, 1305.00
1907, 1304.00
1908, 1303.00
1909, 1304.00
1910, 1304.00
1911, 1305.00
1912, 1303.00
1913, 1303.00
1914, 1304.00
1915, 1304.00
1916, 1304.00
1917, 1303.00
1918, 1304.00
1919, 1304.00
1920, 1304.00
1921, 1306.00
1922, 1305.00
1923, 1303.00
1924, 1304.00
1925, 1304.00
1926, 1303.00
1927, 1305.00
1928, 1304.00
1929, 1304.00
1930, 1302.00
1931, 1303.00
1932, 1302.00
1933, 1305.00
1934, 1305.00
1935, 1302.00
1936, 1304.00
1937, 1304.00
1938, 1305.00
1939, 1305.00
1940, 1304.00
1941, 1303.00
1942, 1304.00
1943, 1305.00
1944, 1304.00
1945, 1305.00
1946, 1305.00
1947, 1305.00
1948, 1303.00
1949, 1304.00
1950, 1305.00
1951, 1306.00
1952, 1305.00
1953, 1305.00
1954, 1306.00
1955, 1306.00
1956, 1306.00
1957, 1306.00
1958, 1306.00
1959, 1307.00
1960, 1308.00
1961, 1306.00
1962, 1306.00
1963, 1308.00
1964, 1308.00
1965, 1306.00
1966, 1308.00
1967, 1310.00
1968, 1308.00
1969, 1308.00
1970, 1309.00
1971, 1309.00
1972, 1309.00
1973, 1310.00
1974, 1311.00
1975, 1310.00
1976, 1311.00
1977, 1312.00
1978, 1312.00
1979, 1311.00
1980, 1311.00
1981, 1311.00
1982, 1312.00
1983, 1313.00
1984, 1312.00
1985, 1314.00
1986, 1315.00
1987, 1315.00
1988, 1313.00
1989, 1313.00
1990, 1314.00
1991, 1315.00
1992, 1313.00
1993, 1315.00
1994, 1315.00
1995, 1317.00
1996, 1316.00
1997, 1316.00
1998, 1317.00
1999, 1315.00
2000, 1317.00
2001, 1316.00
2002, 1318.00
2003, 1318.00
2004, 1319.00
2005, 1319.00
2006, 1319.00
2007, 1319.00
2008, 1319.00
2009, 1320.00
2010, 1319.00
2011, 1319.00
2012, 1320.00
2013, 1320.00
2014, 1321.00
2015, 1321.00
2016, 1321.00
2017, 1321.00
2018, 1322.00
2019, 1322.00
2020, 1323.00
2021, 1322.00
2022, 1323.00
2023, 1324.00
2024, 1324.00
2025, 1324.00
2026, 1323.00
2027, 1323.00
2028, 1324.00
2029, 1326.00
2030, 1326.00
2031, 1326.00
2032, 1327.00
2033, 1326.00
2034, 1327.00
2035, 1327.00
2036, 1329.00
2037, 1328.00
2038, 1328.00
2039, 1328.00
2040, 1329.00
2041, 1329.00
2042, 1331.00
2043, 1329.00
2044, 1332.00
2045, 1331.00
2046, 1332.00
2047, 1331.00
2048, 1333.00
2049, 1332.00
2050, 1332.00
2051, 1332.00
2052, 1335.00
2053, 1335.00
2054, 1335.00
2055, 1334.00
2056, 1335.00
2057, 1337.00
2058, 1336.00
2059, 1337.00
2060, 1338.00
2061, 1338.00
2062, 1339.00
2063, 1338.00
2064, 1337.00
2065, 1340.00
2066, 1341.00
2067, 1341.00
2068, 1341.00
2069, 1342.00
2070, 1343.00
2071, 1342.00
2072, 1345.00
2073, 1342.00
2074, 1345.00
2075, 1344.00
2076, 1346.00
2077, 1344.00
2078, 1346.00
2079, 1345.00
2080, 1347.00
2081, 1345.00
2082, 1349.00
2083, 1349.00
2084, 1348.00
2085, 1347.00
2086, 1349.00
2087, 1350.00
2088, 1349.00
2089, 1351.00
2090, 1349.00
2091, 1350.00
2092, 1352.00
2093, 1352.00
2094, 1351.00
2095, 1350.00
2096, 1351.00
2097, 1350.00
2098, 1352.00
2099, 1353.00
2100, 1354.00
2101, 1354.00
2102, 1353.00
2103, 1355.00
2104, 1353.00
2105, 1354.00
2106, 1354.00
2107, 1355.00
2108, 1356.00
2109, 1355.00
2110, 1356.00
2111, 1355.00
2112, 1356.00
2113, 1356.00
2114, 1357.00
2115, 1356.00
2116, 1358.00
2117, 1359.00
2118, 1357.00
2119, 1357.00
2120, 1357.00
2121, 1358.00
2122, 1358.00
2123, 1358.00
2124, 1357.00
2125, 1357.00
2126, 1359.00
2127, 1359.00
2128, 1359.00
2129, 1358.00
2130, 1359.00
2131, 1360.00
2132, 1359.00
2133, 1360.00
2134, 1361.00
2135, 1361.00
2136, 1361.00
2137, 1361.00
2138, 1361.00
2139, 1361.00
2140, 1362.00
2141, 1361.00
2142, 1362.00
2143, 1362.00
2144, 1362.00
2145, 1361.00
2146, 1363.00
2147, 1362.00
2148, 1364.00
2149, 1362.00
2150, 1363.00
