FW version: 24
Log Version: 3.0.3

General Info:
       Command/Macro Performed,            Timestamp,             Device ID, COM Port, UART/I2C, Test Name, Host Major, Host Minor, Host Revision, Host Git Commit
            Single_measurement,  2023_06_29_10_36_08,       Insight2_F4_xxx,    USB-C,      USB,          ,          0,          1,             1,      4031237645

Show Spectrometer Status:
l0_version, f4_version, battery_perc, battery_mVolt, accelerometer_temp, accelerometer_x, accelerometer_y, accelerometer_z, compass_temp, compass_x, compass_y, compass_z, lamp_0, lamp_1, gain_0, gain_1
        17,         24,           92,          2062,               5664,           65484,           65500,           18424,            0,     65535,     65532,     65535,   3276,   3276,      1,      1

Temperature Statistic Info:
NTC AVG [°C], NTC2 AVG [°C]
      36.408,        36.091

Statistic Info:
M1:  num,      min,      max,   median,      AVG,      STD,M2:  num,      min,      max,   median,      AVG,      STD
     301,  2063.00,  2391.00,  2128.00,  2170.53, 101.9117,     401,  2669.00,  2868.00,  2748.00,  2753.88,  64.9990,

Measurements:
Wavelength, Data Amplitude
1350, 2126.00
1351, 2126.00
1352, 2124.00
1353, 2124.00
1354, 2122.00
1355, 2121.00
1356, 2121.00
1357, 2119.00
1358, 2119.00
1359, 2117.00
1360, 2115.00
1361, 2114.00
1362, 2113.00
1363, 2112.00
1364, 2109.00
1365, 2109.00
1366, 2105.00
1367, 2105.00
1368, 2103.00
1369, 2100.00
1370, 2100.00
1371, 2098.00
1372, 2096.00
1373, 2094.00
1374, 2092.00
1375, 2091.00
1376, 2088.00
1377, 2087.00
1378, 2086.00
1379, 2085.00
1380, 2085.00
1381, 2082.00
1382, 2081.00
1383, 2081.00
1384, 2079.00
1385, 2078.00
1386, 2076.00
1387, 2077.00
1388, 2076.00
1389, 2075.00
1390, 2073.00
1391, 2073.00
1392, 2073.00
1393, 2071.00
1394, 2070.00
1395, 2072.00
1396, 2068.00
1397, 2070.00
1398, 2069.00
1399, 2068.00
1400, 2068.00
1401, 2067.00
1402, 2067.00
1403, 2067.00
1404, 2066.00
1405, 2066.00
1406, 2065.00
1407, 2065.00
1408, 2065.00
1409, 2065.00
1410, 2065.00
1411, 2065.00
1412, 2065.00
1413, 2064.00
1414, 2064.00
1415, 2064.00
1416, 2063.00
1417, 2063.00
1418, 2064.00
1419, 2063.00
1420, 2064.00
1421, 2063.00
1422, 2063.00
1423, 2065.00
1424, 2064.00
1425, 2064.00
1426, 2063.00
1427, 2063.00
1428, 2064.00
1429, 2065.00
1430, 2064.00
1431, 2064.00
1432, 2064.00
1433, 2065.00
1434, 2066.00
1435, 2066.00
1436, 2066.00
1437, 2066.00
1438, 2068.00
1439, 2068.00
1440, 2068.00
1441, 2068.00
1442, 2069.00
1443, 2069.00
1444, 2070.00
1445, 2071.00
1446, 2071.00
1447, 2072.00
1448, 2073.00
1449, 2073.00
1450, 2073.00
1451, 2074.00
1452, 2075.00
1453, 2077.00
1454, 2075.00
1455, 2078.00
1456, 2077.00
1457, 2078.00
1458, 2081.00
1459, 2081.00
1460, 2081.00
1461, 2082.00
1462, 2084.00
1463, 2083.00
1464, 2084.00
1465, 2086.00
1466, 2086.00
1467, 2088.00
1468, 2088.00
1469, 2089.00
1470, 2091.00
1471, 2090.00
1472, 2092.00
1473, 2093.00
1474, 2095.00
1475, 2095.00
1476, 2098.00
1477, 2099.00
1478, 2100.00
1479, 2101.00
1480, 2102.00
1481, 2103.00
1482, 2105.00
1483, 2106.00
1484, 2107.00
1485, 2108.00
1486, 2109.00
1487, 2109.00
1488, 2114.00
1489, 2114.00
1490, 2115.00
1491, 2117.00
1492, 2117.00
1493, 2119.00
1494, 2120.00
1495, 2122.00
1496, 2124.00
1497, 2124.00
1498, 2124.00
1499, 2128.00
1500, 2128.00
1501, 2130.00
1502, 2131.00
1503, 2133.00
1504, 2134.00
1505, 2135.00
1506, 2137.00
1507, 2138.00
1508, 2140.00
1509, 2141.00
1510, 2143.00
1511, 2144.00
1512, 2147.00
1513, 2147.00
1514, 2148.00
1515, 2150.00
1516, 2151.00
1517, 2153.00
1518, 2155.00
1519, 2155.00
1520, 2157.00
1521, 2159.00
1522, 2162.00
1523, 2162.00
1524, 2164.00
1525, 2166.00
1526, 2167.00
1527, 2170.00
1528, 2171.00
1529, 2172.00
1530, 2174.00
1531, 2176.00
1532, 2177.00
1533, 2179.00
1534, 2181.00
1535, 2183.00
1536, 2184.00
1537, 2186.00
1538, 2187.00
1539, 2189.00
1540, 2190.00
1541, 2192.00
1542, 2194.00
1543, 2195.00
1544, 2197.00
1545, 2198.00
1546, 2200.00
1547, 2203.00
1548, 2205.00
1549, 2206.00
1550, 2209.00
1551, 2209.00
1552, 2210.00
1553, 2212.00
1554, 2214.00
1555, 2216.00
1556, 2218.00
1557, 2218.00
1558, 2221.00
1559, 2224.00
1560, 2226.00
1561, 2227.00
1562, 2229.00
1563, 2229.00
1564, 2231.00
1565, 2235.00
1566, 2237.00
1567, 2239.00
1568, 2241.00
1569, 2243.00
1570, 2245.00
1571, 2246.00
1572, 2249.00
1573, 2250.00
1574, 2252.00
1575, 2255.00
1576, 2255.00
1577, 2257.00
1578, 2259.00
1579, 2261.00
1580, 2263.00
1581, 2265.00
1582, 2266.00
1583, 2268.00
1584, 2269.00
1585, 2271.00
1586, 2272.00
1587, 2273.00
1588, 2277.00
1589, 2278.00
1590, 2279.00
1591, 2280.00
1592, 2284.00
1593, 2284.00
1594, 2286.00
1595, 2288.00
1596, 2289.00
1597, 2292.00
1598, 2292.00
1599, 2294.00
1600, 2297.00
1601, 2298.00
1602, 2300.00
1603, 2301.00
1604, 2304.00
1605, 2305.00
1606, 2307.00
1607, 2308.00
1608, 2311.00
1609, 2312.00
1610, 2315.00
1611, 2317.00
1612, 2319.00
1613, 2321.00
1614, 2324.00
1615, 2325.00
1616, 2327.00
1617, 2329.00
1618, 2331.00
1619, 2335.00
1620, 2335.00
1621, 2337.00
1622, 2340.00
1623, 2343.00
1624, 2344.00
1625, 2346.00
1626, 2348.00
1627, 2350.00
1628, 2352.00
1629, 2354.00
1630, 2355.00
1631, 2358.00
1632, 2359.00
1633, 2362.00
1634, 2363.00
1635, 2365.00
1636, 2366.00
1637, 2369.00
1638, 2370.00
1639, 2372.00
1640, 2375.00
1641, 2375.00
1642, 2377.00
1643, 2379.00
1644, 2380.00
1645, 2382.00
1646, 2384.00
1647, 2385.00
1648, 2388.00
1649, 2389.00
1650, 2391.00

1750, 2866.00
1751, 2867.00
1752, 2867.00
1753, 2867.00
1754, 2867.00
1755, 2866.00
1756, 2866.00
1757, 2866.00
1758, 2865.00
1759, 2866.00
1760, 2867.00
1761, 2865.00
1762, 2868.00
1763, 2866.00
1764, 2865.00
1765, 2864.00
1766, 2865.00
1767, 2865.00
1768, 2865.00
1769, 2865.00
1770, 2863.00
1771, 2863.00
1772, 2864.00
1773, 2864.00
1774, 2863.00
1775, 2861.00
1776, 2862.00
1777, 2861.00
1778, 2859.00
1779, 2859.00
1780, 2857.00
1781, 2858.00
1782, 2855.00
1783, 2855.00
1784, 2857.00
1785, 2856.00
1786, 2853.00
1787, 2855.00
1788, 2853.00
1789, 2851.00
1790, 2854.00
1791, 2850.00
1792, 2853.00
1793, 2850.00
1794, 2849.00
1795, 2848.00
1796, 2848.00
1797, 2847.00
1798, 2847.00
1799, 2846.00
1800, 2845.00
1801, 2846.00
1802, 2847.00
1803, 2845.00
1804, 2843.00
1805, 2842.00
1806, 2840.00
1807, 2842.00
1808, 2840.00
1809, 2841.00
1810, 2838.00
1811, 2837.00
1812, 2836.00
1813, 2836.00
1814, 2837.00
1815, 2835.00
1816, 2834.00
1817, 2832.00
1818, 2832.00
1819, 2831.00
1820, 2830.00
1821, 2829.00
1822, 2829.00
1823, 2825.00
1824, 2826.00
1825, 2824.00
1826, 2823.00
1827, 2821.00
1828, 2819.00
1829, 2818.00
1830, 2815.00
1831, 2813.00
1832, 2812.00
1833, 2809.00
1834, 2807.00
1835, 2805.00
1836, 2801.00
1837, 2799.00
1838, 2796.00
1839, 2794.00
1840, 2792.00
1841, 2788.00
1842, 2787.00
1843, 2782.00
1844, 2781.00
1845, 2778.00
1846, 2774.00
1847, 2771.00
1848, 2769.00
1849, 2765.00
1850, 2761.00
1851, 2759.00
1852, 2757.00
1853, 2753.00
1854, 2748.00
1855, 2745.00
1856, 2744.00
1857, 2740.00
1858, 2737.00
1859, 2734.00
1860, 2731.00
1861, 2727.00
1862, 2726.00
1863, 2723.00
1864, 2720.00
1865, 2717.00
1866, 2717.00
1867, 2711.00
1868, 2712.00
1869, 2710.00
1870, 2705.00
1871, 2705.00
1872, 2704.00
1873, 2700.00
1874, 2700.00
1875, 2699.00
1876, 2698.00
1877, 2695.00
1878, 2695.00
1879, 2693.00
1880, 2692.00
1881, 2692.00
1882, 2689.00
1883, 2690.00
1884, 2688.00
1885, 2686.00
1886, 2686.00
1887, 2686.00
1888, 2685.00
1889, 2685.00
1890, 2683.00
1891, 2683.00
1892, 2682.00
1893, 2681.00
1894, 2681.00
1895, 2681.00
1896, 2678.00
1897, 2679.00
1898, 2677.00
1899, 2678.00
1900, 2678.00
1901, 2674.00
1902, 2678.00
1903, 2676.00
1904, 2675.00
1905, 2674.00
1906, 2674.00
1907, 2673.00
1908, 2675.00
1909, 2673.00
1910, 2673.00
1911, 2673.00
1912, 2674.00
1913, 2673.00
1914, 2671.00
1915, 2672.00
1916, 2674.00
1917, 2671.00
1918, 2671.00
1919, 2671.00
1920, 2671.00
1921, 2670.00
1922, 2670.00
1923, 2671.00
1924, 2672.00
1925, 2669.00
1926, 2669.00
1927, 2669.00
1928, 2669.00
1929, 2669.00
1930, 2669.00
1931, 2669.00
1932, 2671.00
1933, 2671.00
1934, 2669.00
1935, 2670.00
1936, 2669.00
1937, 2670.00
1938, 2671.00
1939, 2669.00
1940, 2671.00
1941, 2672.00
1942, 2671.00
1943, 2672.00
1944, 2673.00
1945, 2672.00
1946, 2673.00
1947, 2673.00
1948, 2673.00
1949, 2673.00
1950, 2673.00
1951, 2675.00
1952, 2674.00
1953, 2675.00
1954, 2675.00
1955, 2677.00
1956, 2677.00
1957, 2676.00
1958, 2677.00
1959, 2677.00
1960, 2677.00
1961, 2677.00
1962, 2678.00
1963, 2681.00
1964, 2679.00
1965, 2681.00
1966, 2681.00
1967, 2682.00
1968, 2683.00
1969, 2682.00
1970, 2685.00
1971, 2684.00
1972, 2684.00
1973, 2685.00
1974, 2686.00
1975, 2687.00
1976, 2687.00
1977, 2687.00
1978, 2688.00
1979, 2689.00
1980, 2690.00
1981, 2689.00
1982, 2691.00
1983, 2692.00
1984, 2690.00
1985, 2691.00
1986, 2692.00
1987, 2694.00
1988, 2696.00
1989, 2697.00
1990, 2696.00
1991, 2696.00
1992, 2697.00
1993, 2697.00
1994, 2698.00
1995, 2700.00
1996, 2702.00
1997, 2701.00
1998, 2702.00
1999, 2702.00
2000, 2702.00
2001, 2705.00
2002, 2702.00
2003, 2706.00
2004, 2707.00
2005, 2705.00
2006, 2707.00
2007, 2707.00
2008, 2708.00
2009, 2707.00
2010, 2710.00
2011, 2711.00
2012, 2712.00
2013, 2712.00
2014, 2714.00
2015, 2714.00
2016, 2714.00
2017, 2716.00
2018, 2716.00
2019, 2715.00
2020, 2715.00
2021, 2717.00
2022, 2718.00
2023, 2718.00
2024, 2720.00
2025, 2721.00
2026, 2722.00
2027, 2720.00
2028, 2721.00
2029, 2724.00
2030, 2725.00
2031, 2724.00
2032, 2725.00
2033, 2727.00
2034, 2728.00
2035, 2728.00
2036, 2729.00
2037, 2731.00
2038, 2732.00
2039, 2732.00
2040, 2733.00
2041, 2732.00
2042, 2733.00
2043, 2735.00
2044, 2735.00
2045, 2734.00
2046, 2737.00
2047, 2738.00
2048, 2741.00
2049, 2742.00
2050, 2743.00
2051, 2744.00
2052, 2744.00
2053, 2745.00
2054, 2745.00
2055, 2748.00
2056, 2749.00
2057, 2749.00
2058, 2749.00
2059, 2752.00
2060, 2753.00
2061, 2753.00
2062, 2755.00
2063, 2757.00
2064, 2757.00
2065, 2758.00
2066, 2758.00
2067, 2759.00
2068, 2760.00
2069, 2761.00
2070, 2763.00
2071, 2764.00
2072, 2763.00
2073, 2766.00
2074, 2768.00
2075, 2768.00
2076, 2769.00
2077, 2772.00
2078, 2771.00
2079, 2771.00
2080, 2772.00
2081, 2775.00
2082, 2775.00
2083, 2775.00
2084, 2775.00
2085, 2777.00
2086, 2779.00
2087, 2779.00
2088, 2779.00
2089, 2781.00
2090, 2782.00
2091, 2782.00
2092, 2783.00
2093, 2785.00
2094, 2786.00
2095, 2785.00
2096, 2787.00
2097, 2786.00
2098, 2788.00
2099, 2789.00
2100, 2789.00
2101, 2791.00
2102, 2789.00
2103, 2789.00
2104, 2791.00
2105, 2792.00
2106, 2792.00
2107, 2793.00
2108, 2794.00
2109, 2794.00
2110, 2794.00
2111, 2796.00
2112, 2794.00
2113, 2795.00
2114, 2797.00
2115, 2797.00
2116, 2799.00
2117, 2798.00
2118, 2798.00
2119, 2798.00
2120, 2799.00
2121, 2799.00
2122, 2798.00
2123, 2799.00
2124, 2800.00
2125, 2802.00
2126, 2802.00
2127, 2801.00
2128, 2803.00
2129, 2803.00
2130, 2803.00
2131, 2805.00
2132, 2805.00
2133, 2803.00
2134, 2806.00
2135, 2806.00
2136, 2806.00
2137, 2807.00
2138, 2806.00
2139, 2806.00
2140, 2808.00
2141, 2805.00
2142, 2808.00
2143, 2808.00
2144, 2809.00
2145, 2808.00
2146, 2808.00
2147, 2809.00
2148, 2809.00
2149, 2811.00
2150, 2808.00
