FW version: 24
Log Version: 3.0.3

General Info:
       Command/Macro Performed,            Timestamp,             Device ID, COM Port, UART/I2C, Test Name, Host Major, Host Minor, Host Revision, Host Git Commit
            Single_measurement,  2023_06_29_10_36_13,       Insight2_F4_xxx,    USB-C,      USB,          ,          0,          1,             1,      4031237645

Show Spectrometer Status:
l0_version, f4_version, battery_perc, battery_mVolt, accelerometer_temp, accelerometer_x, accelerometer_y, accelerometer_z, compass_temp, compass_x, compass_y, compass_z, lamp_0, lamp_1, gain_0, gain_1
        17,         24,           92,          2055,               5664,           65448,           65500,           18400,            0,     65533,     65533,     65534,   3276,   3276,      1,      1

Temperature Statistic Info:
NTC AVG [°C], NTC2 AVG [°C]
      36.494,        36.120

Statistic Info:
M1:  num,      min,      max,   median,      AVG,      STD,M2:  num,      min,      max,   median,      AVG,      STD
     301,  2061.00,  2390.00,  2127.00,  2169.52, 102.0203,     401,  2668.00,  2868.00,  2746.00,  2752.96,  64.9525,

Measurements:
Wavelength, Data Amplitude
1350, 2126.00
1351, 2125.00
1352, 2124.00
1353, 2123.00
1354, 2121.00
1355, 2120.00
1356, 2120.00
1357, 2117.00
1358, 2116.00
1359, 2115.00
1360, 2115.00
1361, 2112.00
1362, 2111.00
1363, 2109.00
1364, 2107.00
1365, 2106.00
1366, 2105.00
1367, 2104.00
1368, 2102.00
1369, 2099.00
1370, 2098.00
1371, 2096.00
1372, 2094.00
1373, 2092.00
1374, 2091.00
1375, 2089.00
1376, 2089.00
1377, 2087.00
1378, 2085.00
1379, 2085.00
1380, 2083.00
1381, 2081.00
1382, 2081.00
1383, 2078.00
1384, 2079.00
1385, 2077.00
1386, 2077.00
1387, 2076.00
1388, 2075.00
1389, 2073.00
1390, 2072.00
1391, 2072.00
1392, 2072.00
1393, 2070.00
1394, 2070.00
1395, 2069.00
1396, 2069.00
1397, 2069.00
1398, 2068.00
1399, 2067.00
1400, 2068.00
1401, 2067.00
1402, 2066.00
1403, 2066.00
1404, 2065.00
1405, 2066.00
1406, 2064.00
1407, 2063.00
1408, 2064.00
1409, 2063.00
1410, 2063.00
1411, 2064.00
1412, 2064.00
1413, 2063.00
1414, 2064.00
1415, 2062.00
1416, 2063.00
1417, 2061.00
1418, 2063.00
1419, 2063.00
1420, 2062.00
1421, 2061.00
1422, 2061.00
1423, 2062.00
1424, 2061.00
1425, 2063.00
1426, 2063.00
1427, 2062.00
1428, 2063.00
1429, 2063.00
1430, 2064.00
1431, 2064.00
1432, 2063.00
1433, 2064.00
1434, 2065.00
1435, 2066.00
1436, 2066.00
1437, 2065.00
1438, 2067.00
1439, 2067.00
1440, 2068.00
1441, 2068.00
1442, 2068.00
1443, 2068.00
1444, 2069.00
1445, 2069.00
1446, 2070.00
1447, 2071.00
1448, 2072.00
1449, 2072.00
1450, 2072.00
1451, 2073.00
1452, 2073.00
1453, 2075.00
1454, 2076.00
1455, 2075.00
1456, 2077.00
1457, 2077.00
1458, 2078.00
1459, 2080.00
1460, 2080.00
1461, 2080.00
1462, 2082.00
1463, 2083.00
1464, 2083.00
1465, 2084.00
1466, 2086.00
1467, 2086.00
1468, 2088.00
1469, 2088.00
1470, 2089.00
1471, 2090.00
1472, 2092.00
1473, 2094.00
1474, 2093.00
1475, 2094.00
1476, 2096.00
1477, 2098.00
1478, 2099.00
1479, 2100.00
1480, 2101.00
1481, 2102.00
1482, 2104.00
1483, 2105.00
1484, 2106.00
1485, 2107.00
1486, 2109.00
1487, 2110.00
1488, 2111.00
1489, 2113.00
1490, 2115.00
1491, 2115.00
1492, 2116.00
1493, 2118.00
1494, 2120.00
1495, 2121.00
1496, 2122.00
1497, 2124.00
1498, 2126.00
1499, 2126.00
1500, 2127.00
1501, 2128.00
1502, 2129.00
1503, 2132.00
1504, 2133.00
1505, 2134.00
1506, 2135.00
1507, 2137.00
1508, 2138.00
1509, 2139.00
1510, 2141.00
1511, 2143.00
1512, 2144.00
1513, 2145.00
1514, 2148.00
1515, 2150.00
1516, 2150.00
1517, 2152.00
1518, 2153.00
1519, 2155.00
1520, 2157.00
1521, 2157.00
1522, 2160.00
1523, 2162.00
1524, 2163.00
1525, 2165.00
1526, 2166.00
1527, 2168.00
1528, 2170.00
1529, 2171.00
1530, 2173.00
1531, 2174.00
1532, 2176.00
1533, 2177.00
1534, 2179.00
1535, 2182.00
1536, 2184.00
1537, 2185.00
1538, 2186.00
1539, 2188.00
1540, 2189.00
1541, 2191.00
1542, 2194.00
1543, 2194.00
1544, 2196.00
1545, 2197.00
1546, 2199.00
1547, 2201.00
1548, 2201.00
1549, 2203.00
1550, 2206.00
1551, 2208.00
1552, 2209.00
1553, 2211.00
1554, 2213.00
1555, 2215.00
1556, 2218.00
1557, 2220.00
1558, 2221.00
1559, 2223.00
1560, 2223.00
1561, 2226.00
1562, 2228.00
1563, 2230.00
1564, 2231.00
1565, 2234.00
1566, 2237.00
1567, 2237.00
1568, 2240.00
1569, 2241.00
1570, 2243.00
1571, 2246.00
1572, 2247.00
1573, 2249.00
1574, 2252.00
1575, 2253.00
1576, 2255.00
1577, 2256.00
1578, 2259.00
1579, 2260.00
1580, 2263.00
1581, 2263.00
1582, 2267.00
1583, 2267.00
1584, 2269.00
1585, 2270.00
1586, 2272.00
1587, 2273.00
1588, 2275.00
1589, 2276.00
1590, 2278.00
1591, 2279.00
1592, 2282.00
1593, 2283.00
1594, 2285.00
1595, 2287.00
1596, 2288.00
1597, 2290.00
1598, 2292.00
1599, 2294.00
1600, 2296.00
1601, 2296.00
1602, 2299.00
1603, 2301.00
1604, 2302.00
1605, 2305.00
1606, 2306.00
1607, 2309.00
1608, 2310.00
1609, 2312.00
1610, 2314.00
1611, 2315.00
1612, 2318.00
1613, 2320.00
1614, 2322.00
1615, 2325.00
1616, 2327.00
1617, 2329.00
1618, 2330.00
1619, 2333.00
1620, 2335.00
1621, 2337.00
1622, 2338.00
1623, 2341.00
1624, 2344.00
1625, 2346.00
1626, 2346.00
1627, 2349.00
1628, 2352.00
1629, 2354.00
1630, 2355.00
1631, 2358.00
1632, 2359.00
1633, 2360.00
1634, 2362.00
1635, 2364.00
1636, 2366.00
1637, 2369.00
1638, 2370.00
1639, 2371.00
1640, 2374.00
1641, 2374.00
1642, 2376.00
1643, 2378.00
1644, 2380.00
1645, 2380.00
1646, 2383.00
1647, 2385.00
1648, 2386.00
1649, 2389.00
1650, 2390.00

1750, 2867.00
1751, 2866.00
1752, 2865.00
1753, 2866.00
1754, 2866.00
1755, 2865.00
1756, 2866.00
1757, 2866.00
1758, 2868.00
1759, 2865.00
1760, 2865.00
1761, 2867.00
1762, 2866.00
1763, 2865.00
1764, 2866.00
1765, 2863.00
1766, 2866.00
1767, 2865.00
1768, 2863.00
1769, 2863.00
1770, 2863.00
1771, 2862.00
1772, 2863.00
1773, 2861.00
1774, 2862.00
1775, 2860.00
1776, 2860.00
1777, 2860.00
1778, 2857.00
1779, 2857.00
1780, 2857.00
1781, 2858.00
1782, 2858.00
1783, 2854.00
1784, 2855.00
1785, 2853.00
1786, 2853.00
1787, 2854.00
1788, 2851.00
1789, 2852.00
1790, 2851.00
1791, 2850.00
1792, 2850.00
1793, 2848.00
1794, 2849.00
1795, 2846.00
1796, 2846.00
1797, 2846.00
1798, 2844.00
1799, 2846.00
1800, 2846.00
1801, 2842.00
1802, 2843.00
1803, 2842.00
1804, 2843.00
1805, 2840.00
1806, 2842.00
1807, 2839.00
1808, 2840.00
1809, 2839.00
1810, 2838.00
1811, 2837.00
1812, 2836.00
1813, 2835.00
1814, 2835.00
1815, 2834.00
1816, 2831.00
1817, 2833.00
1818, 2830.00
1819, 2830.00
1820, 2830.00
1821, 2827.00
1822, 2826.00
1823, 2825.00
1824, 2824.00
1825, 2821.00
1826, 2821.00
1827, 2817.00
1828, 2816.00
1829, 2817.00
1830, 2815.00
1831, 2812.00
1832, 2811.00
1833, 2809.00
1834, 2806.00
1835, 2803.00
1836, 2801.00
1837, 2799.00
1838, 2795.00
1839, 2793.00
1840, 2791.00
1841, 2787.00
1842, 2787.00
1843, 2782.00
1844, 2779.00
1845, 2777.00
1846, 2772.00
1847, 2770.00
1848, 2767.00
1849, 2763.00
1850, 2759.00
1851, 2757.00
1852, 2754.00
1853, 2750.00
1854, 2748.00
1855, 2745.00
1856, 2741.00
1857, 2736.00
1858, 2735.00
1859, 2732.00
1860, 2731.00
1861, 2728.00
1862, 2724.00
1863, 2723.00
1864, 2719.00
1865, 2718.00
1866, 2714.00
1867, 2713.00
1868, 2708.00
1869, 2709.00
1870, 2708.00
1871, 2705.00
1872, 2704.00
1873, 2699.00
1874, 2699.00
1875, 2697.00
1876, 2696.00
1877, 2696.00
1878, 2693.00
1879, 2692.00
1880, 2690.00
1881, 2689.00
1882, 2688.00
1883, 2687.00
1884, 2687.00
1885, 2686.00
1886, 2685.00
1887, 2684.00
1888, 2682.00
1889, 2684.00
1890, 2680.00
1891, 2681.00
1892, 2681.00
1893, 2681.00
1894, 2679.00
1895, 2679.00
1896, 2678.00
1897, 2677.00
1898, 2675.00
1899, 2677.00
1900, 2677.00
1901, 2676.00
1902, 2674.00
1903, 2676.00
1904, 2674.00
1905, 2674.00
1906, 2673.00
1907, 2672.00
1908, 2671.00
1909, 2671.00
1910, 2672.00
1911, 2672.00
1912, 2672.00
1913, 2671.00
1914, 2670.00
1915, 2669.00
1916, 2671.00
1917, 2669.00
1918, 2670.00
1919, 2670.00
1920, 2669.00
1921, 2671.00
1922, 2670.00
1923, 2670.00
1924, 2669.00
1925, 2670.00
1926, 2669.00
1927, 2670.00
1928, 2669.00
1929, 2669.00
1930, 2670.00
1931, 2669.00
1932, 2670.00
1933, 2668.00
1934, 2668.00
1935, 2671.00
1936, 2669.00
1937, 2670.00
1938, 2669.00
1939, 2671.00
1940, 2672.00
1941, 2671.00
1942, 2671.00
1943, 2670.00
1944, 2673.00
1945, 2671.00
1946, 2673.00
1947, 2673.00
1948, 2674.00
1949, 2673.00
1950, 2673.00
1951, 2673.00
1952, 2673.00
1953, 2674.00
1954, 2676.00
1955, 2675.00
1956, 2676.00
1957, 2676.00
1958, 2676.00
1959, 2678.00
1960, 2678.00
1961, 2676.00
1962, 2678.00
1963, 2677.00
1964, 2680.00
1965, 2679.00
1966, 2681.00
1967, 2681.00
1968, 2683.00
1969, 2684.00
1970, 2683.00
1971, 2682.00
1972, 2683.00
1973, 2682.00
1974, 2685.00
1975, 2685.00
1976, 2686.00
1977, 2687.00
1978, 2688.00
1979, 2688.00
1980, 2690.00
1981, 2691.00
1982, 2691.00
1983, 2690.00
1984, 2692.00
1985, 2693.00
1986, 2694.00
1987, 2693.00
1988, 2694.00
1989, 2695.00
1990, 2695.00
1991, 2696.00
1992, 2698.00
1993, 2697.00
1994, 2698.00
1995, 2699.00
1996, 2698.00
1997, 2700.00
1998, 2700.00
1999, 2702.00
2000, 2700.00
2001, 2703.00
2002, 2703.00
2003, 2705.00
2004, 2706.00
2005, 2706.00
2006, 2704.00
2007, 2707.00
2008, 2707.00
2009, 2707.00
2010, 2710.00
2011, 2710.00
2012, 2712.00
2013, 2711.00
2014, 2711.00
2015, 2715.00
2016, 2713.00
2017, 2716.00
2018, 2714.00
2019, 2714.00
2020, 2716.00
2021, 2716.00
2022, 2717.00
2023, 2720.00
2024, 2721.00
2025, 2719.00
2026, 2719.00
2027, 2719.00
2028, 2721.00
2029, 2721.00
2030, 2723.00
2031, 2725.00
2032, 2723.00
2033, 2725.00
2034, 2725.00
2035, 2728.00
2036, 2728.00
2037, 2729.00
2038, 2729.00
2039, 2731.00
2040, 2731.00
2041, 2732.00
2042, 2733.00
2043, 2733.00
2044, 2736.00
2045, 2734.00
2046, 2737.00
2047, 2737.00
2048, 2737.00
2049, 2738.00
2050, 2742.00
2051, 2742.00
2052, 2743.00
2053, 2743.00
2054, 2745.00
2055, 2746.00
2056, 2747.00
2057, 2750.00
2058, 2748.00
2059, 2750.00
2060, 2751.00
2061, 2751.00
2062, 2754.00
2063, 2755.00
2064, 2756.00
2065, 2759.00
2066, 2758.00
2067, 2759.00
2068, 2760.00
2069, 2761.00
2070, 2763.00
2071, 2763.00
2072, 2764.00
2073, 2765.00
2074, 2766.00
2075, 2768.00
2076, 2769.00
2077, 2768.00
2078, 2771.00
2079, 2771.00
2080, 2771.00
2081, 2774.00
2082, 2773.00
2083, 2775.00
2084, 2777.00
2085, 2775.00
2086, 2777.00
2087, 2779.00
2088, 2778.00
2089, 2780.00
2090, 2781.00
2091, 2782.00
2092, 2783.00
2093, 2784.00
2094, 2783.00
2095, 2784.00
2096, 2786.00
2097, 2785.00
2098, 2787.00
2099, 2788.00
2100, 2789.00
2101, 2789.00
2102, 2788.00
2103, 2789.00
2104, 2790.00
2105, 2791.00
2106, 2791.00
2107, 2794.00
2108, 2793.00
2109, 2793.00
2110, 2795.00
2111, 2795.00
2112, 2795.00
2113, 2796.00
2114, 2797.00
2115, 2796.00
2116, 2797.00
2117, 2797.00
2118, 2797.00
2119, 2799.00
2120, 2797.00
2121, 2800.00
2122, 2799.00
2123, 2800.00
2124, 2799.00
2125, 2801.00
2126, 2800.00
2127, 2800.00
2128, 2800.00
2129, 2803.00
2130, 2805.00
2131, 2801.00
2132, 2805.00
2133, 2802.00
2134, 2804.00
2135, 2804.00
2136, 2806.00
2137, 2805.00
2138, 2804.00
2139, 2806.00
2140, 2807.00
2141, 2807.00
2142, 2806.00
2143, 2807.00
2144, 2809.00
2145, 2805.00
2146, 2809.00
2147, 2809.00
2148, 2808.00
2149, 2807.00
2150, 2810.00
