FW version: 24
Log Version: 3.0.3

General Info:
       Command/Macro Performed,            Timestamp,             Device ID, COM Port, UART/I2C, Test Name, Host Major, Host Minor, Host Revision, Host Git Commit
            Single_measurement,  2023_06_28_12_33_01,       Insight2_F4_xxx,    USB-C,      USB,          ,          0,          1,             1,      4031237645

Show Spectrometer Status:
l0_version, f4_version, battery_perc, battery_mVolt, accelerometer_temp, accelerometer_x, accelerometer_y, accelerometer_z, compass_temp, compass_x, compass_y, compass_z, lamp_0, lamp_1, gain_0, gain_1
        17,         24,           49,          1918,               6416,             176,             308,           18604,            0,     65463,     65461,     18606,   3276,   3276,      0,      0

Temperature Statistic Info:
NTC AVG [°C], NTC2 AVG [°C]
      39.646,        39.352

Statistic Info:
M1:  num,      min,      max,   median,      AVG,      STD,M2:  num,      min,      max,   median,      AVG,      STD
     301,   598.00,   677.00,   616.00,   624.23,  24.5397,     401,   815.00,   865.00,   840.00,   839.28,  16.9961,

Measurements:
Wavelength, Data Amplitude
1350, 609.00
1351, 609.00
1352, 608.00
1353, 609.00
1354, 608.00
1355, 608.00
1356, 608.00
1357, 608.00
1358, 608.00
1359, 607.00
1360, 607.00
1361, 607.00
1362, 607.00
1363, 606.00
1364, 606.00
1365, 606.00
1366, 605.00
1367, 605.00
1368, 605.00
1369, 605.00
1370, 605.00
1371, 604.00
1372, 604.00
1373, 604.00
1374, 603.00
1375, 603.00
1376, 602.00
1377, 602.00
1378, 602.00
1379, 602.00
1380, 602.00
1381, 602.00
1382, 601.00
1383, 601.00
1384, 601.00
1385, 601.00
1386, 601.00
1387, 600.00
1388, 600.00
1389, 600.00
1390, 599.00
1391, 600.00
1392, 599.00
1393, 600.00
1394, 600.00
1395, 599.00
1396, 599.00
1397, 599.00
1398, 599.00
1399, 599.00
1400, 599.00
1401, 599.00
1402, 599.00
1403, 599.00
1404, 599.00
1405, 599.00
1406, 598.00
1407, 598.00
1408, 598.00
1409, 598.00
1410, 599.00
1411, 599.00
1412, 598.00
1413, 598.00
1414, 599.00
1415, 598.00
1416, 598.00
1417, 598.00
1418, 598.00
1419, 598.00
1420, 598.00
1421, 598.00
1422, 598.00
1423, 598.00
1424, 599.00
1425, 599.00
1426, 599.00
1427, 599.00
1428, 599.00
1429, 599.00
1430, 599.00
1431, 599.00
1432, 599.00
1433, 599.00
1434, 599.00
1435, 600.00
1436, 599.00
1437, 600.00
1438, 600.00
1439, 600.00
1440, 600.00
1441, 600.00
1442, 600.00
1443, 600.00
1444, 601.00
1445, 601.00
1446, 601.00
1447, 601.00
1448, 602.00
1449, 602.00
1450, 602.00
1451, 602.00
1452, 602.00
1453, 603.00
1454, 602.00
1455, 603.00
1456, 603.00
1457, 603.00
1458, 603.00
1459, 604.00
1460, 604.00
1461, 603.00
1462, 604.00
1463, 604.00
1464, 604.00
1465, 605.00
1466, 605.00
1467, 605.00
1468, 606.00
1469, 606.00
1470, 606.00
1471, 607.00
1472, 607.00
1473, 607.00
1474, 607.00
1475, 607.00
1476, 608.00
1477, 608.00
1478, 609.00
1479, 609.00
1480, 609.00
1481, 610.00
1482, 610.00
1483, 610.00
1484, 610.00
1485, 611.00
1486, 611.00
1487, 612.00
1488, 612.00
1489, 612.00
1490, 612.00
1491, 613.00
1492, 613.00
1493, 613.00
1494, 613.00
1495, 614.00
1496, 614.00
1497, 615.00
1498, 615.00
1499, 615.00
1500, 616.00
1501, 616.00
1502, 616.00
1503, 617.00
1504, 617.00
1505, 617.00
1506, 618.00
1507, 618.00
1508, 618.00
1509, 618.00
1510, 619.00
1511, 619.00
1512, 620.00
1513, 620.00
1514, 620.00
1515, 620.00
1516, 622.00
1517, 621.00
1518, 622.00
1519, 621.00
1520, 622.00
1521, 623.00
1522, 623.00
1523, 624.00
1524, 624.00
1525, 624.00
1526, 625.00
1527, 625.00
1528, 626.00
1529, 626.00
1530, 626.00
1531, 626.00
1532, 627.00
1533, 628.00
1534, 628.00
1535, 628.00
1536, 629.00
1537, 629.00
1538, 629.00
1539, 630.00
1540, 630.00
1541, 631.00
1542, 631.00
1543, 631.00
1544, 631.00
1545, 632.00
1546, 633.00
1547, 632.00
1548, 633.00
1549, 634.00
1550, 634.00
1551, 635.00
1552, 635.00
1553, 635.00
1554, 636.00
1555, 637.00
1556, 637.00
1557, 637.00
1558, 637.00
1559, 638.00
1560, 638.00
1561, 639.00
1562, 639.00
1563, 640.00
1564, 640.00
1565, 641.00
1566, 641.00
1567, 641.00
1568, 642.00
1569, 642.00
1570, 642.00
1571, 643.00
1572, 643.00
1573, 644.00
1574, 644.00
1575, 645.00
1576, 645.00
1577, 645.00
1578, 645.00
1579, 646.00
1580, 647.00
1581, 646.00
1582, 647.00
1583, 647.00
1584, 648.00
1585, 648.00
1586, 649.00
1587, 649.00
1588, 649.00
1589, 650.00
1590, 650.00
1591, 651.00
1592, 651.00
1593, 652.00
1594, 652.00
1595, 652.00
1596, 652.00
1597, 653.00
1598, 653.00
1599, 654.00
1600, 654.00
1601, 655.00
1602, 655.00
1603, 655.00
1604, 656.00
1605, 656.00
1606, 657.00
1607, 657.00
1608, 658.00
1609, 658.00
1610, 658.00
1611, 659.00
1612, 660.00
1613, 660.00
1614, 660.00
1615, 661.00
1616, 662.00
1617, 662.00
1618, 662.00
1619, 663.00
1620, 664.00
1621, 664.00
1622, 664.00
1623, 665.00
1624, 665.00
1625, 666.00
1626, 666.00
1627, 667.00
1628, 668.00
1629, 668.00
1630, 668.00
1631, 668.00
1632, 669.00
1633, 670.00
1634, 670.00
1635, 671.00
1636, 671.00
1637, 671.00
1638, 672.00
1639, 672.00
1640, 673.00
1641, 673.00
1642, 674.00
1643, 674.00
1644, 674.00
1645, 675.00
1646, 675.00
1647, 675.00
1648, 676.00
1649, 676.00
1650, 677.00

1750, 865.00
1751, 865.00
1752, 865.00
1753, 865.00
1754, 865.00
1755, 865.00
1756, 864.00
1757, 865.00
1758, 865.00
1759, 865.00
1760, 864.00
1761, 865.00
1762, 865.00
1763, 864.00
1764, 865.00
1765, 864.00
1766, 865.00
1767, 865.00
1768, 864.00
1769, 864.00
1770, 864.00
1771, 863.00
1772, 863.00
1773, 864.00
1774, 863.00
1775, 863.00
1776, 863.00
1777, 863.00
1778, 863.00
1779, 863.00
1780, 863.00
1781, 862.00
1782, 863.00
1783, 861.00
1784, 862.00
1785, 861.00
1786, 861.00
1787, 861.00
1788, 861.00
1789, 861.00
1790, 861.00
1791, 860.00
1792, 860.00
1793, 860.00
1794, 861.00
1795, 859.00
1796, 860.00
1797, 860.00
1798, 859.00
1799, 859.00
1800, 859.00
1801, 859.00
1802, 859.00
1803, 858.00
1804, 859.00
1805, 859.00
1806, 859.00
1807, 858.00
1808, 858.00
1809, 858.00
1810, 858.00
1811, 858.00
1812, 858.00
1813, 858.00
1814, 857.00
1815, 857.00
1816, 857.00
1817, 857.00
1818, 857.00
1819, 856.00
1820, 857.00
1821, 856.00
1822, 855.00
1823, 855.00
1824, 855.00
1825, 854.00
1826, 855.00
1827, 854.00
1828, 853.00
1829, 854.00
1830, 852.00
1831, 853.00
1832, 852.00
1833, 852.00
1834, 850.00
1835, 850.00
1836, 849.00
1837, 849.00
1838, 848.00
1839, 848.00
1840, 847.00
1841, 846.00
1842, 846.00
1843, 845.00
1844, 844.00
1845, 844.00
1846, 843.00
1847, 842.00
1848, 842.00
1849, 841.00
1850, 840.00
1851, 838.00
1852, 837.00
1853, 837.00
1854, 836.00
1855, 835.00
1856, 834.00
1857, 834.00
1858, 833.00
1859, 833.00
1860, 832.00
1861, 830.00
1862, 831.00
1863, 829.00
1864, 829.00
1865, 828.00
1866, 827.00
1867, 826.00
1868, 826.00
1869, 825.00
1870, 825.00
1871, 824.00
1872, 824.00
1873, 823.00
1874, 823.00
1875, 822.00
1876, 822.00
1877, 822.00
1878, 822.00
1879, 821.00
1880, 821.00
1881, 820.00
1882, 820.00
1883, 819.00
1884, 820.00
1885, 820.00
1886, 819.00
1887, 819.00
1888, 818.00
1889, 818.00
1890, 818.00
1891, 819.00
1892, 818.00
1893, 818.00
1894, 817.00
1895, 818.00
1896, 817.00
1897, 817.00
1898, 817.00
1899, 817.00
1900, 817.00
1901, 817.00
1902, 816.00
1903, 816.00
1904, 817.00
1905, 816.00
1906, 816.00
1907, 816.00
1908, 816.00
1909, 816.00
1910, 816.00
1911, 815.00
1912, 815.00
1913, 815.00
1914, 815.00
1915, 815.00
1916, 816.00
1917, 815.00
1918, 815.00
1919, 815.00
1920, 816.00
1921, 815.00
1922, 816.00
1923, 816.00
1924, 815.00
1925, 816.00
1926, 816.00
1927, 816.00
1928, 816.00
1929, 815.00
1930, 815.00
1931, 815.00
1932, 815.00
1933, 815.00
1934, 815.00
1935, 816.00
1936, 815.00
1937, 816.00
1938, 816.00
1939, 816.00
1940, 815.00
1941, 816.00
1942, 817.00
1943, 816.00
1944, 817.00
1945, 816.00
1946, 816.00
1947, 817.00
1948, 817.00
1949, 817.00
1950, 817.00
1951, 818.00
1952, 817.00
1953, 817.00
1954, 818.00
1955, 818.00
1956, 818.00
1957, 818.00
1958, 818.00
1959, 818.00
1960, 819.00
1961, 820.00
1962, 819.00
1963, 819.00
1964, 820.00
1965, 820.00
1966, 820.00
1967, 819.00
1968, 820.00
1969, 821.00
1970, 821.00
1971, 821.00
1972, 821.00
1973, 821.00
1974, 822.00
1975, 822.00
1976, 822.00
1977, 823.00
1978, 823.00
1979, 823.00
1980, 823.00
1981, 823.00
1982, 823.00
1983, 823.00
1984, 824.00
1985, 823.00
1986, 824.00
1987, 825.00
1988, 825.00
1989, 825.00
1990, 825.00
1991, 826.00
1992, 826.00
1993, 826.00
1994, 826.00
1995, 827.00
1996, 827.00
1997, 826.00
1998, 827.00
1999, 827.00
2000, 827.00
2001, 827.00
2002, 828.00
2003, 828.00
2004, 828.00
2005, 829.00
2006, 829.00
2007, 828.00
2008, 829.00
2009, 830.00
2010, 829.00
2011, 829.00
2012, 830.00
2013, 831.00
2014, 831.00
2015, 831.00
2016, 830.00
2017, 831.00
2018, 831.00
2019, 832.00
2020, 832.00
2021, 832.00
2022, 832.00
2023, 832.00
2024, 833.00
2025, 832.00
2026, 833.00
2027, 833.00
2028, 834.00
2029, 834.00
2030, 835.00
2031, 835.00
2032, 834.00
2033, 834.00
2034, 835.00
2035, 835.00
2036, 836.00
2037, 836.00
2038, 836.00
2039, 836.00
2040, 836.00
2041, 837.00
2042, 837.00
2043, 837.00
2044, 837.00
2045, 838.00
2046, 839.00
2047, 839.00
2048, 839.00
2049, 840.00
2050, 839.00
2051, 840.00
2052, 840.00
2053, 840.00
2054, 841.00
2055, 842.00
2056, 841.00
2057, 841.00
2058, 842.00
2059, 842.00
2060, 843.00
2061, 842.00
2062, 842.00
2063, 843.00
2064, 843.00
2065, 845.00
2066, 845.00
2067, 845.00
2068, 845.00
2069, 845.00
2070, 845.00
2071, 847.00
2072, 846.00
2073, 847.00
2074, 847.00
2075, 847.00
2076, 848.00
2077, 848.00
2078, 848.00
2079, 848.00
2080, 849.00
2081, 849.00
2082, 849.00
2083, 849.00
2084, 850.00
2085, 850.00
2086, 850.00
2087, 850.00
2088, 850.00
2089, 850.00
2090, 851.00
2091, 851.00
2092, 852.00
2093, 852.00
2094, 853.00
2095, 852.00
2096, 853.00
2097, 852.00
2098, 852.00
2099, 853.00
2100, 853.00
2101, 853.00
2102, 853.00
2103, 853.00
2104, 853.00
2105, 853.00
2106, 854.00
2107, 854.00
2108, 854.00
2109, 854.00
2110, 854.00
2111, 855.00
2112, 854.00
2113, 855.00
2114, 855.00
2115, 856.00
2116, 856.00
2117, 855.00
2118, 855.00
2119, 855.00
2120, 856.00
2121, 855.00
2122, 856.00
2123, 856.00
2124, 856.00
2125, 856.00
2126, 856.00
2127, 857.00
2128, 857.00
2129, 856.00
2130, 858.00
2131, 857.00
2132, 857.00
2133, 858.00
2134, 858.00
2135, 857.00
2136, 857.00
2137, 857.00
2138, 858.00
2139, 857.00
2140, 858.00
2141, 858.00
2142, 858.00
2143, 858.00
2144, 859.00
2145, 858.00
2146, 858.00
2147, 858.00
2148, 858.00
2149, 858.00
2150, 858.00
