FW version: 24
Log Version: 3.0.3

General Info:
       Command/Macro Performed,            Timestamp,             Device ID, COM Port, UART/I2C, Test Name, Host Major, Host Minor, Host Revision, Host Git Commit
            Single_measurement,  2023_07_04_10_56_57,       Insight2_F4_xxx,    USB-C,      USB,          ,          0,          1,             1,      4031237645

Show Spectrometer Status:
l0_version, f4_version, battery_perc, battery_mVolt, accelerometer_temp, accelerometer_x, accelerometer_y, accelerometer_z, compass_temp, compass_x, compass_y, compass_z, lamp_0, lamp_1, gain_0, gain_1
        17,         24,           11,          1830,               5456,           64936,            2048,           19040,            0,     65513,     65346,     19051,   3276,   3276,      0,      0

Temperature Statistic Info:
NTC AVG [°C], NTC2 AVG [°C]
      35.328,        34.957

Statistic Info:
M1:  num,      min,      max,   median,      AVG,      STD,M2:  num,      min,      max,   median,      AVG,      STD
     301,   633.00,   729.00,   652.00,   664.76,  29.6286,     401,   843.00,   900.00,   866.00,   867.99,  18.4064,

Measurements:
Wavelength, Data Amplitude
1350, 652.00
1351, 652.00
1352, 651.00
1353, 651.00
1354, 651.00
1355, 650.00
1356, 650.00
1357, 650.00
1358, 649.00
1359, 649.00
1360, 648.00
1361, 648.00
1362, 648.00
1363, 647.00
1364, 647.00
1365, 646.00
1366, 646.00
1367, 646.00
1368, 645.00
1369, 645.00
1370, 644.00
1371, 643.00
1372, 643.00
1373, 642.00
1374, 642.00
1375, 641.00
1376, 641.00
1377, 641.00
1378, 640.00
1379, 640.00
1380, 639.00
1381, 640.00
1382, 639.00
1383, 639.00
1384, 639.00
1385, 638.00
1386, 638.00
1387, 638.00
1388, 637.00
1389, 637.00
1390, 637.00
1391, 637.00
1392, 636.00
1393, 636.00
1394, 636.00
1395, 636.00
1396, 636.00
1397, 636.00
1398, 635.00
1399, 635.00
1400, 635.00
1401, 635.00
1402, 635.00
1403, 635.00
1404, 635.00
1405, 635.00
1406, 634.00
1407, 634.00
1408, 634.00
1409, 634.00
1410, 634.00
1411, 634.00
1412, 634.00
1413, 634.00
1414, 634.00
1415, 634.00
1416, 634.00
1417, 634.00
1418, 633.00
1419, 634.00
1420, 634.00
1421, 634.00
1422, 633.00
1423, 634.00
1424, 634.00
1425, 634.00
1426, 634.00
1427, 634.00
1428, 634.00
1429, 634.00
1430, 634.00
1431, 634.00
1432, 634.00
1433, 634.00
1434, 635.00
1435, 634.00
1436, 634.00
1437, 634.00
1438, 635.00
1439, 635.00
1440, 635.00
1441, 635.00
1442, 635.00
1443, 635.00
1444, 635.00
1445, 636.00
1446, 635.00
1447, 636.00
1448, 637.00
1449, 636.00
1450, 637.00
1451, 637.00
1452, 637.00
1453, 637.00
1454, 638.00
1455, 638.00
1456, 638.00
1457, 638.00
1458, 638.00
1459, 639.00
1460, 639.00
1461, 639.00
1462, 639.00
1463, 639.00
1464, 640.00
1465, 640.00
1466, 640.00
1467, 640.00
1468, 640.00
1469, 641.00
1470, 641.00
1471, 642.00
1472, 642.00
1473, 642.00
1474, 643.00
1475, 643.00
1476, 643.00
1477, 644.00
1478, 644.00
1479, 644.00
1480, 645.00
1481, 645.00
1482, 645.00
1483, 645.00
1484, 646.00
1485, 646.00
1486, 647.00
1487, 647.00
1488, 648.00
1489, 648.00
1490, 649.00
1491, 649.00
1492, 649.00
1493, 650.00
1494, 650.00
1495, 650.00
1496, 651.00
1497, 651.00
1498, 652.00
1499, 652.00
1500, 652.00
1501, 652.00
1502, 653.00
1503, 654.00
1504, 654.00
1505, 655.00
1506, 655.00
1507, 655.00
1508, 656.00
1509, 656.00
1510, 657.00
1511, 657.00
1512, 657.00
1513, 658.00
1514, 658.00
1515, 658.00
1516, 659.00
1517, 660.00
1518, 660.00
1519, 660.00
1520, 661.00
1521, 661.00
1522, 662.00
1523, 663.00
1524, 663.00
1525, 663.00
1526, 664.00
1527, 664.00
1528, 665.00
1529, 665.00
1530, 666.00
1531, 666.00
1532, 667.00
1533, 668.00
1534, 668.00
1535, 668.00
1536, 669.00
1537, 670.00
1538, 670.00
1539, 670.00
1540, 671.00
1541, 672.00
1542, 672.00
1543, 672.00
1544, 673.00
1545, 673.00
1546, 674.00
1547, 674.00
1548, 674.00
1549, 675.00
1550, 675.00
1551, 676.00
1552, 677.00
1553, 677.00
1554, 678.00
1555, 678.00
1556, 679.00
1557, 679.00
1558, 680.00
1559, 680.00
1560, 680.00
1561, 681.00
1562, 682.00
1563, 683.00
1564, 683.00
1565, 683.00
1566, 684.00
1567, 684.00
1568, 685.00
1569, 686.00
1570, 686.00
1571, 687.00
1572, 687.00
1573, 687.00
1574, 688.00
1575, 689.00
1576, 690.00
1577, 690.00
1578, 690.00
1579, 691.00
1580, 692.00
1581, 692.00
1582, 693.00
1583, 693.00
1584, 693.00
1585, 694.00
1586, 695.00
1587, 695.00
1588, 695.00
1589, 696.00
1590, 696.00
1591, 697.00
1592, 698.00
1593, 698.00
1594, 698.00
1595, 699.00
1596, 699.00
1597, 700.00
1598, 700.00
1599, 701.00
1600, 701.00
1601, 702.00
1602, 702.00
1603, 702.00
1604, 703.00
1605, 704.00
1606, 704.00
1607, 706.00
1608, 706.00
1609, 706.00
1610, 706.00
1611, 707.00
1612, 708.00
1613, 709.00
1614, 709.00
1615, 710.00
1616, 711.00
1617, 711.00
1618, 711.00
1619, 712.00
1620, 713.00
1621, 713.00
1622, 714.00
1623, 715.00
1624, 715.00
1625, 716.00
1626, 717.00
1627, 717.00
1628, 717.00
1629, 718.00
1630, 719.00
1631, 719.00
1632, 720.00
1633, 720.00
1634, 721.00
1635, 721.00
1636, 722.00
1637, 723.00
1638, 723.00
1639, 723.00
1640, 723.00
1641, 724.00
1642, 725.00
1643, 725.00
1644, 726.00
1645, 726.00
1646, 727.00
1647, 728.00
1648, 728.00
1649, 728.00
1650, 729.00

1750, 900.00
1751, 900.00
1752, 900.00
1753, 899.00
1754, 899.00
1755, 899.00
1756, 900.00
1757, 900.00
1758, 899.00
1759, 899.00
1760, 899.00
1761, 899.00
1762, 899.00
1763, 899.00
1764, 899.00
1765, 900.00
1766, 898.00
1767, 900.00
1768, 899.00
1769, 899.00
1770, 898.00
1771, 899.00
1772, 898.00
1773, 898.00
1774, 898.00
1775, 898.00
1776, 898.00
1777, 897.00
1778, 897.00
1779, 897.00
1780, 898.00
1781, 897.00
1782, 896.00
1783, 897.00
1784, 897.00
1785, 897.00
1786, 896.00
1787, 896.00
1788, 896.00
1789, 895.00
1790, 895.00
1791, 895.00
1792, 895.00
1793, 895.00
1794, 894.00
1795, 894.00
1796, 894.00
1797, 894.00
1798, 893.00
1799, 894.00
1800, 894.00
1801, 893.00
1802, 893.00
1803, 893.00
1804, 893.00
1805, 893.00
1806, 892.00
1807, 892.00
1808, 892.00
1809, 892.00
1810, 892.00
1811, 892.00
1812, 892.00
1813, 891.00
1814, 891.00
1815, 891.00
1816, 890.00
1817, 890.00
1818, 890.00
1819, 890.00
1820, 889.00
1821, 889.00
1822, 888.00
1823, 888.00
1824, 887.00
1825, 887.00
1826, 887.00
1827, 886.00
1828, 886.00
1829, 885.00
1830, 886.00
1831, 885.00
1832, 884.00
1833, 884.00
1834, 883.00
1835, 882.00
1836, 882.00
1837, 881.00
1838, 880.00
1839, 880.00
1840, 879.00
1841, 877.00
1842, 877.00
1843, 876.00
1844, 876.00
1845, 874.00
1846, 874.00
1847, 873.00
1848, 872.00
1849, 871.00
1850, 871.00
1851, 869.00
1852, 869.00
1853, 867.00
1854, 866.00
1855, 866.00
1856, 865.00
1857, 863.00
1858, 862.00
1859, 862.00
1860, 861.00
1861, 861.00
1862, 860.00
1863, 859.00
1864, 859.00
1865, 857.00
1866, 857.00
1867, 856.00
1868, 855.00
1869, 855.00
1870, 855.00
1871, 855.00
1872, 853.00
1873, 853.00
1874, 853.00
1875, 852.00
1876, 851.00
1877, 852.00
1878, 851.00
1879, 851.00
1880, 851.00
1881, 850.00
1882, 849.00
1883, 849.00
1884, 850.00
1885, 849.00
1886, 848.00
1887, 849.00
1888, 848.00
1889, 848.00
1890, 848.00
1891, 847.00
1892, 847.00
1893, 847.00
1894, 847.00
1895, 847.00
1896, 847.00
1897, 847.00
1898, 846.00
1899, 846.00
1900, 846.00
1901, 845.00
1902, 846.00
1903, 845.00
1904, 845.00
1905, 845.00
1906, 846.00
1907, 845.00
1908, 846.00
1909, 845.00
1910, 845.00
1911, 845.00
1912, 845.00
1913, 845.00
1914, 845.00
1915, 844.00
1916, 844.00
1917, 844.00
1918, 844.00
1919, 845.00
1920, 845.00
1921, 845.00
1922, 844.00
1923, 844.00
1924, 844.00
1925, 844.00
1926, 844.00
1927, 843.00
1928, 844.00
1929, 843.00
1930, 844.00
1931, 844.00
1932, 843.00
1933, 845.00
1934, 844.00
1935, 844.00
1936, 845.00
1937, 844.00
1938, 845.00
1939, 844.00
1940, 844.00
1941, 845.00
1942, 845.00
1943, 845.00
1944, 845.00
1945, 845.00
1946, 844.00
1947, 845.00
1948, 845.00
1949, 845.00
1950, 845.00
1951, 845.00
1952, 845.00
1953, 845.00
1954, 845.00
1955, 846.00
1956, 846.00
1957, 845.00
1958, 846.00
1959, 847.00
1960, 846.00
1961, 847.00
1962, 846.00
1963, 847.00
1964, 848.00
1965, 847.00
1966, 847.00
1967, 847.00
1968, 848.00
1969, 848.00
1970, 848.00
1971, 847.00
1972, 848.00
1973, 849.00
1974, 849.00
1975, 849.00
1976, 849.00
1977, 849.00
1978, 849.00
1979, 849.00
1980, 850.00
1981, 850.00
1982, 850.00
1983, 851.00
1984, 850.00
1985, 851.00
1986, 851.00
1987, 851.00
1988, 852.00
1989, 851.00
1990, 852.00
1991, 852.00
1992, 852.00
1993, 852.00
1994, 853.00
1995, 853.00
1996, 853.00
1997, 853.00
1998, 853.00
1999, 854.00
2000, 854.00
2001, 853.00
2002, 854.00
2003, 855.00
2004, 855.00
2005, 855.00
2006, 855.00
2007, 855.00
2008, 855.00
2009, 856.00
2010, 856.00
2011, 856.00
2012, 856.00
2013, 856.00
2014, 856.00
2015, 857.00
2016, 857.00
2017, 857.00
2018, 856.00
2019, 858.00
2020, 857.00
2021, 857.00
2022, 858.00
2023, 858.00
2024, 858.00
2025, 859.00
2026, 858.00
2027, 859.00
2028, 859.00
2029, 859.00
2030, 860.00
2031, 859.00
2032, 860.00
2033, 860.00
2034, 860.00
2035, 860.00
2036, 861.00
2037, 861.00
2038, 862.00
2039, 862.00
2040, 862.00
2041, 862.00
2042, 862.00
2043, 863.00
2044, 862.00
2045, 863.00
2046, 863.00
2047, 864.00
2048, 864.00
2049, 865.00
2050, 865.00
2051, 865.00
2052, 865.00
2053, 866.00
2054, 866.00
2055, 867.00
2056, 866.00
2057, 867.00
2058, 867.00
2059, 868.00
2060, 868.00
2061, 869.00
2062, 869.00
2063, 869.00
2064, 869.00
2065, 869.00
2066, 868.00
2067, 870.00
2068, 871.00
2069, 871.00
2070, 870.00
2071, 871.00
2072, 872.00
2073, 872.00
2074, 872.00
2075, 872.00
2076, 872.00
2077, 873.00
2078, 873.00
2079, 873.00
2080, 874.00
2081, 874.00
2082, 874.00
2083, 874.00
2084, 875.00
2085, 875.00
2086, 875.00
2087, 876.00
2088, 876.00
2089, 876.00
2090, 876.00
2091, 877.00
2092, 877.00
2093, 877.00
2094, 877.00
2095, 878.00
2096, 877.00
2097, 877.00
2098, 878.00
2099, 877.00
2100, 878.00
2101, 879.00
2102, 879.00
2103, 879.00
2104, 879.00
2105, 879.00
2106, 879.00
2107, 880.00
2108, 880.00
2109, 880.00
2110, 880.00
2111, 880.00
2112, 880.00
2113, 881.00
2114, 881.00
2115, 881.00
2116, 881.00
2117, 881.00
2118, 881.00
2119, 881.00
2120, 882.00
2121, 882.00
2122, 882.00
2123, 882.00
2124, 882.00
2125, 882.00
2126, 882.00
2127, 883.00
2128, 882.00
2129, 882.00
2130, 883.00
2131, 883.00
2132, 883.00
2133, 883.00
2134, 883.00
2135, 883.00
2136, 883.00
2137, 883.00
2138, 884.00
2139, 884.00
2140, 884.00
2141, 884.00
2142, 885.00
2143, 884.00
2144, 884.00
2145, 885.00
2146, 885.00
2147, 885.00
2148, 885.00
2149, 884.00
2150, 885.00
