FW version: 24
Log Version: 3.0.3

General Info:
       Command/Macro Performed,            Timestamp,             Device ID, COM Port, UART/I2C, Test Name, Host Major, Host Minor, Host Revision, Host Git Commit
            Single_measurement,  2023_06_27_12_31_38,       Insight2_F4_xxx,    USB-C,      USB,          ,          0,          1,             1,      4031237645

Show Spectrometer Status:
l0_version, f4_version, battery_perc, battery_mVolt, accelerometer_temp, accelerometer_x, accelerometer_y, accelerometer_z, compass_temp, compass_x, compass_y, compass_z, lamp_0, lamp_1, gain_0, gain_1
        17,         24,           95,          2078,               5456,             688,           65016,           18424,            0,     65531,     65529,     65531,   3276,   3276,    0,    0

Temperature Statistic Info:
NTC AVG [°C], NTC2 AVG [°C]
      36.807,        36.523

Statistic Info:
M1:  num,      min,      max,   median,      AVG,      STD,M2:  num,      min,      max,   median,      AVG,      STD
     301,   557.00,   621.00,   572.00,   578.75,  19.8282,     401,   768.00,   808.00,   789.00,   788.35,  13.4353,

Measurements:
Wavelength, Data Amplitude
1350, 565.00
1351, 565.00
1352, 565.00
1353, 564.00
1354, 565.00
1355, 565.00
1356, 565.00
1357, 565.00
1358, 565.00
1359, 564.00
1360, 564.00
1361, 564.00
1362, 564.00
1363, 564.00
1364, 563.00
1365, 563.00
1366, 563.00
1367, 563.00
1368, 563.00
1369, 563.00
1370, 562.00
1371, 562.00
1372, 562.00
1373, 561.00
1374, 562.00
1375, 561.00
1376, 561.00
1377, 560.00
1378, 560.00
1379, 560.00
1380, 560.00
1381, 560.00
1382, 560.00
1383, 560.00
1384, 560.00
1385, 560.00
1386, 560.00
1387, 559.00
1388, 560.00
1389, 559.00
1390, 558.00
1391, 558.00
1392, 559.00
1393, 559.00
1394, 558.00
1395, 558.00
1396, 559.00
1397, 558.00
1398, 558.00
1399, 558.00
1400, 558.00
1401, 558.00
1402, 558.00
1403, 558.00
1404, 558.00
1405, 558.00
1406, 558.00
1407, 558.00
1408, 558.00
1409, 558.00
1410, 558.00
1411, 558.00
1412, 558.00
1413, 558.00
1414, 558.00
1415, 558.00
1416, 558.00
1417, 558.00
1418, 558.00
1419, 558.00
1420, 558.00
1421, 558.00
1422, 557.00
1423, 558.00
1424, 558.00
1425, 558.00
1426, 558.00
1427, 558.00
1428, 558.00
1429, 558.00
1430, 558.00
1431, 558.00
1432, 558.00
1433, 559.00
1434, 559.00
1435, 559.00
1436, 558.00
1437, 559.00
1438, 559.00
1439, 559.00
1440, 560.00
1441, 560.00
1442, 559.00
1443, 560.00
1444, 560.00
1445, 560.00
1446, 560.00
1447, 561.00
1448, 561.00
1449, 560.00
1450, 561.00
1451, 561.00
1452, 561.00
1453, 561.00
1454, 561.00
1455, 561.00
1456, 561.00
1457, 562.00
1458, 562.00
1459, 562.00
1460, 562.00
1461, 563.00
1462, 563.00
1463, 563.00
1464, 563.00
1465, 564.00
1466, 564.00
1467, 564.00
1468, 564.00
1469, 564.00
1470, 565.00
1471, 565.00
1472, 565.00
1473, 565.00
1474, 565.00
1475, 566.00
1476, 566.00
1477, 566.00
1478, 566.00
1479, 567.00
1480, 567.00
1481, 567.00
1482, 568.00
1483, 567.00
1484, 568.00
1485, 568.00
1486, 568.00
1487, 569.00
1488, 569.00
1489, 569.00
1490, 570.00
1491, 569.00
1492, 570.00
1493, 571.00
1494, 570.00
1495, 571.00
1496, 571.00
1497, 571.00
1498, 571.00
1499, 572.00
1500, 573.00
1501, 572.00
1502, 573.00
1503, 573.00
1504, 573.00
1505, 573.00
1506, 574.00
1507, 574.00
1508, 574.00
1509, 574.00
1510, 576.00
1511, 575.00
1512, 576.00
1513, 576.00
1514, 576.00
1515, 576.00
1516, 576.00
1517, 577.00
1518, 577.00
1519, 578.00
1520, 578.00
1521, 578.00
1522, 579.00
1523, 578.00
1524, 579.00
1525, 579.00
1526, 580.00
1527, 580.00
1528, 580.00
1529, 581.00
1530, 581.00
1531, 581.00
1532, 582.00
1533, 582.00
1534, 582.00
1535, 582.00
1536, 583.00
1537, 583.00
1538, 583.00
1539, 584.00
1540, 584.00
1541, 584.00
1542, 584.00
1543, 585.00
1544, 585.00
1545, 586.00
1546, 585.00
1547, 586.00
1548, 586.00
1549, 586.00
1550, 586.00
1551, 587.00
1552, 587.00
1553, 588.00
1554, 588.00
1555, 589.00
1556, 589.00
1557, 589.00
1558, 589.00
1559, 589.00
1560, 590.00
1561, 590.00
1562, 590.00
1563, 591.00
1564, 591.00
1565, 592.00
1566, 592.00
1567, 592.00
1568, 593.00
1569, 593.00
1570, 593.00
1571, 594.00
1572, 594.00
1573, 594.00
1574, 595.00
1575, 595.00
1576, 595.00
1577, 595.00
1578, 596.00
1579, 596.00
1580, 597.00
1581, 597.00
1582, 597.00
1583, 598.00
1584, 598.00
1585, 598.00
1586, 598.00
1587, 599.00
1588, 599.00
1589, 599.00
1590, 600.00
1591, 600.00
1592, 601.00
1593, 600.00
1594, 601.00
1595, 602.00
1596, 601.00
1597, 602.00
1598, 602.00
1599, 602.00
1600, 602.00
1601, 603.00
1602, 603.00
1603, 604.00
1604, 604.00
1605, 604.00
1606, 605.00
1607, 605.00
1608, 606.00
1609, 606.00
1610, 607.00
1611, 607.00
1612, 607.00
1613, 608.00
1614, 608.00
1615, 608.00
1616, 609.00
1617, 610.00
1618, 610.00
1619, 610.00
1620, 610.00
1621, 611.00
1622, 611.00
1623, 612.00
1624, 612.00
1625, 612.00
1626, 613.00
1627, 613.00
1628, 613.00
1629, 613.00
1630, 614.00
1631, 615.00
1632, 615.00
1633, 615.00
1634, 616.00
1635, 616.00
1636, 617.00
1637, 616.00
1638, 617.00
1639, 618.00
1640, 618.00
1641, 618.00
1642, 619.00
1643, 619.00
1644, 619.00
1645, 620.00
1646, 620.00
1647, 620.00
1648, 621.00
1649, 621.00
1650, 621.00

1750, 807.00
1751, 807.00
1752, 807.00
1753, 807.00
1754, 807.00
1755, 806.00
1756, 807.00
1757, 807.00
1758, 807.00
1759, 807.00
1760, 807.00
1761, 807.00
1762, 806.00
1763, 807.00
1764, 807.00
1765, 807.00
1766, 807.00
1767, 807.00
1768, 808.00
1769, 807.00
1770, 806.00
1771, 807.00
1772, 807.00
1773, 806.00
1774, 806.00
1775, 806.00
1776, 806.00
1777, 806.00
1778, 806.00
1779, 806.00
1780, 805.00
1781, 806.00
1782, 805.00
1783, 805.00
1784, 805.00
1785, 805.00
1786, 804.00
1787, 804.00
1788, 803.00
1789, 805.00
1790, 804.00
1791, 804.00
1792, 804.00
1793, 804.00
1794, 804.00
1795, 804.00
1796, 803.00
1797, 803.00
1798, 803.00
1799, 803.00
1800, 803.00
1801, 803.00
1802, 804.00
1803, 803.00
1804, 802.00
1805, 802.00
1806, 802.00
1807, 801.00
1808, 802.00
1809, 802.00
1810, 802.00
1811, 802.00
1812, 802.00
1813, 801.00
1814, 802.00
1815, 802.00
1816, 802.00
1817, 801.00
1818, 801.00
1819, 801.00
1820, 801.00
1821, 800.00
1822, 801.00
1823, 800.00
1824, 800.00
1825, 800.00
1826, 799.00
1827, 800.00
1828, 800.00
1829, 799.00
1830, 799.00
1831, 798.00
1832, 799.00
1833, 798.00
1834, 797.00
1835, 797.00
1836, 797.00
1837, 796.00
1838, 796.00
1839, 795.00
1840, 795.00
1841, 794.00
1842, 794.00
1843, 793.00
1844, 792.00
1845, 793.00
1846, 792.00
1847, 791.00
1848, 791.00
1849, 790.00
1850, 790.00
1851, 788.00
1852, 788.00
1853, 788.00
1854, 786.00
1855, 786.00
1856, 786.00
1857, 785.00
1858, 784.00
1859, 784.00
1860, 783.00
1861, 782.00
1862, 781.00
1863, 782.00
1864, 781.00
1865, 780.00
1866, 779.00
1867, 779.00
1868, 779.00
1869, 778.00
1870, 777.00
1871, 777.00
1872, 777.00
1873, 776.00
1874, 776.00
1875, 775.00
1876, 775.00
1877, 774.00
1878, 774.00
1879, 773.00
1880, 773.00
1881, 773.00
1882, 774.00
1883, 774.00
1884, 772.00
1885, 772.00
1886, 772.00
1887, 772.00
1888, 772.00
1889, 772.00
1890, 771.00
1891, 771.00
1892, 771.00
1893, 771.00
1894, 771.00
1895, 771.00
1896, 770.00
1897, 770.00
1898, 770.00
1899, 769.00
1900, 770.00
1901, 769.00
1902, 770.00
1903, 770.00
1904, 770.00
1905, 770.00
1906, 770.00
1907, 769.00
1908, 769.00
1909, 769.00
1910, 769.00
1911, 769.00
1912, 769.00
1913, 769.00
1914, 769.00
1915, 769.00
1916, 769.00
1917, 769.00
1918, 769.00
1919, 769.00
1920, 768.00
1921, 769.00
1922, 768.00
1923, 769.00
1924, 769.00
1925, 768.00
1926, 769.00
1927, 769.00
1928, 768.00
1929, 769.00
1930, 769.00
1931, 769.00
1932, 769.00
1933, 769.00
1934, 768.00
1935, 769.00
1936, 770.00
1937, 769.00
1938, 769.00
1939, 769.00
1940, 770.00
1941, 770.00
1942, 770.00
1943, 769.00
1944, 770.00
1945, 770.00
1946, 770.00
1947, 770.00
1948, 770.00
1949, 770.00
1950, 770.00
1951, 771.00
1952, 771.00
1953, 771.00
1954, 771.00
1955, 771.00
1956, 771.00
1957, 772.00
1958, 772.00
1959, 772.00
1960, 772.00
1961, 772.00
1962, 772.00
1963, 772.00
1964, 772.00
1965, 773.00
1966, 773.00
1967, 773.00
1968, 773.00
1969, 774.00
1970, 773.00
1971, 774.00
1972, 774.00
1973, 774.00
1974, 774.00
1975, 774.00
1976, 775.00
1977, 775.00
1978, 775.00
1979, 775.00
1980, 776.00
1981, 776.00
1982, 776.00
1983, 776.00
1984, 776.00
1985, 776.00
1986, 776.00
1987, 777.00
1988, 777.00
1989, 777.00
1990, 778.00
1991, 777.00
1992, 778.00
1993, 778.00
1994, 778.00
1995, 777.00
1996, 778.00
1997, 779.00
1998, 779.00
1999, 779.00
2000, 779.00
2001, 780.00
2002, 779.00
2003, 779.00
2004, 780.00
2005, 780.00
2006, 780.00
2007, 780.00
2008, 781.00
2009, 781.00
2010, 781.00
2011, 781.00
2012, 781.00
2013, 781.00
2014, 781.00
2015, 782.00
2016, 782.00
2017, 782.00
2018, 783.00
2019, 783.00
2020, 782.00
2021, 783.00
2022, 783.00
2023, 782.00
2024, 783.00
2025, 784.00
2026, 784.00
2027, 783.00
2028, 784.00
2029, 784.00
2030, 785.00
2031, 785.00
2032, 785.00
2033, 785.00
2034, 786.00
2035, 786.00
2036, 786.00
2037, 786.00
2038, 786.00
2039, 786.00
2040, 787.00
2041, 787.00
2042, 788.00
2043, 788.00
2044, 787.00
2045, 787.00
2046, 789.00
2047, 789.00
2048, 789.00
2049, 789.00
2050, 789.00
2051, 789.00
2052, 790.00
2053, 790.00
2054, 790.00
2055, 790.00
2056, 791.00
2057, 791.00
2058, 791.00
2059, 791.00
2060, 792.00
2061, 792.00
2062, 792.00
2063, 793.00
2064, 793.00
2065, 793.00
2066, 793.00
2067, 793.00
2068, 794.00
2069, 794.00
2070, 794.00
2071, 794.00
2072, 795.00
2073, 795.00
2074, 795.00
2075, 796.00
2076, 795.00
2077, 796.00
2078, 797.00
2079, 796.00
2080, 797.00
2081, 797.00
2082, 797.00
2083, 797.00
2084, 797.00
2085, 798.00
2086, 798.00
2087, 798.00
2088, 799.00
2089, 799.00
2090, 799.00
2091, 799.00
2092, 799.00
2093, 800.00
2094, 799.00
2095, 799.00
2096, 800.00
2097, 800.00
2098, 800.00
2099, 800.00
2100, 800.00
2101, 801.00
2102, 801.00
2103, 801.00
2104, 800.00
2105, 801.00
2106, 801.00
2107, 801.00
2108, 801.00
2109, 802.00
2110, 802.00
2111, 801.00
2112, 801.00
2113, 801.00
2114, 802.00
2115, 802.00
2116, 802.00
2117, 802.00
2118, 802.00
2119, 802.00
2120, 802.00
2121, 803.00
2122, 802.00
2123, 802.00
2124, 803.00
2125, 802.00
2126, 803.00
2127, 803.00
2128, 803.00
2129, 803.00
2130, 803.00
2131, 803.00
2132, 803.00
2133, 803.00
2134, 803.00
2135, 804.00
2136, 803.00
2137, 803.00
2138, 804.00
2139, 804.00
2140, 804.00
2141, 803.00
2142, 804.00
2143, 804.00
2144, 804.00
2145, 803.00
2146, 804.00
2147, 804.00
2148, 804.00
2149, 804.00
2150, 804.00
