FW version: 24
Log Version: 3.0.3

General Info:
       Command/Macro Performed,            Timestamp,             Device ID, COM Port, UART/I2C, Test Name, Host Major, Host Minor, Host Revision, Host Git Commit
            Single_measurement,  2023_06_30_11_15_07,       Insight2_F4_xxx,    USB-C,      USB,          ,          0,          1,             1,      4031237645

Show Spectrometer Status:
l0_version, f4_version, battery_perc, battery_mVolt, accelerometer_temp, accelerometer_x, accelerometer_y, accelerometer_z, compass_temp, compass_x, compass_y, compass_z, lamp_0, lamp_1, gain_0, gain_1
        17,         24,           94,          2075,               6192,           65280,             444,           18436,            0,     65349,     65535,     18439,   3276,   3276,      1,      1

Temperature Statistic Info:
NTC AVG [°C], NTC2 AVG [°C]
      39.145,        38.796

Statistic Info:
M1:  num,      min,      max,   median,      AVG,      STD,M2:  num,      min,      max,   median,      AVG,      STD
     301,  2046.00,  2361.00,  2109.00,  2150.40,  98.1335,     401,  2588.00,  2780.00,  2664.00,  2670.10,  61.6596,

Measurements:
Wavelength, Data Amplitude
1350, 2108.00
1351, 2107.00
1352, 2106.00
1353, 2105.00
1354, 2103.00
1355, 2104.00
1356, 2102.00
1357, 2100.00
1358, 2099.00
1359, 2098.00
1360, 2096.00
1361, 2095.00
1362, 2094.00
1363, 2092.00
1364, 2090.00
1365, 2089.00
1366, 2086.00
1367, 2085.00
1368, 2083.00
1369, 2082.00
1370, 2080.00
1371, 2080.00
1372, 2077.00
1373, 2074.00
1374, 2074.00
1375, 2072.00
1376, 2071.00
1377, 2068.00
1378, 2069.00
1379, 2067.00
1380, 2066.00
1381, 2066.00
1382, 2064.00
1383, 2062.00
1384, 2061.00
1385, 2059.00
1386, 2059.00
1387, 2059.00
1388, 2058.00
1389, 2057.00
1390, 2056.00
1391, 2056.00
1392, 2055.00
1393, 2055.00
1394, 2054.00
1395, 2053.00
1396, 2053.00
1397, 2052.00
1398, 2053.00
1399, 2052.00
1400, 2051.00
1401, 2050.00
1402, 2051.00
1403, 2049.00
1404, 2050.00
1405, 2050.00
1406, 2050.00
1407, 2049.00
1408, 2049.00
1409, 2049.00
1410, 2048.00
1411, 2049.00
1412, 2049.00
1413, 2048.00
1414, 2048.00
1415, 2047.00
1416, 2046.00
1417, 2049.00
1418, 2048.00
1419, 2046.00
1420, 2048.00
1421, 2046.00
1422, 2048.00
1423, 2047.00
1424, 2047.00
1425, 2048.00
1426, 2046.00
1427, 2049.00
1428, 2047.00
1429, 2048.00
1430, 2048.00
1431, 2048.00
1432, 2049.00
1433, 2050.00
1434, 2050.00
1435, 2051.00
1436, 2052.00
1437, 2052.00
1438, 2051.00
1439, 2052.00
1440, 2052.00
1441, 2053.00
1442, 2053.00
1443, 2053.00
1444, 2054.00
1445, 2056.00
1446, 2054.00
1447, 2057.00
1448, 2057.00
1449, 2057.00
1450, 2057.00
1451, 2058.00
1452, 2058.00
1453, 2059.00
1454, 2060.00
1455, 2061.00
1456, 2061.00
1457, 2062.00
1458, 2063.00
1459, 2064.00
1460, 2065.00
1461, 2066.00
1462, 2066.00
1463, 2067.00
1464, 2069.00
1465, 2069.00
1466, 2071.00
1467, 2071.00
1468, 2071.00
1469, 2072.00
1470, 2074.00
1471, 2075.00
1472, 2075.00
1473, 2076.00
1474, 2078.00
1475, 2079.00
1476, 2081.00
1477, 2082.00
1478, 2082.00
1479, 2084.00
1480, 2085.00
1481, 2087.00
1482, 2087.00
1483, 2089.00
1484, 2091.00
1485, 2091.00
1486, 2092.00
1487, 2094.00
1488, 2096.00
1489, 2096.00
1490, 2098.00
1491, 2098.00
1492, 2100.00
1493, 2101.00
1494, 2103.00
1495, 2103.00
1496, 2105.00
1497, 2107.00
1498, 2107.00
1499, 2109.00
1500, 2109.00
1501, 2110.00
1502, 2112.00
1503, 2114.00
1504, 2115.00
1505, 2116.00
1506, 2118.00
1507, 2120.00
1508, 2121.00
1509, 2122.00
1510, 2123.00
1511, 2124.00
1512, 2128.00
1513, 2128.00
1514, 2130.00
1515, 2130.00
1516, 2131.00
1517, 2134.00
1518, 2135.00
1519, 2137.00
1520, 2138.00
1521, 2140.00
1522, 2141.00
1523, 2144.00
1524, 2144.00
1525, 2145.00
1526, 2148.00
1527, 2150.00
1528, 2149.00
1529, 2152.00
1530, 2154.00
1531, 2155.00
1532, 2157.00
1533, 2160.00
1534, 2159.00
1535, 2162.00
1536, 2164.00
1537, 2166.00
1538, 2166.00
1539, 2168.00
1540, 2171.00
1541, 2171.00
1542, 2173.00
1543, 2175.00
1544, 2177.00
1545, 2177.00
1546, 2179.00
1547, 2182.00
1548, 2182.00
1549, 2183.00
1550, 2186.00
1551, 2188.00
1552, 2190.00
1553, 2193.00
1554, 2193.00
1555, 2194.00
1556, 2197.00
1557, 2199.00
1558, 2200.00
1559, 2201.00
1560, 2203.00
1561, 2205.00
1562, 2207.00
1563, 2209.00
1564, 2211.00
1565, 2212.00
1566, 2214.00
1567, 2218.00
1568, 2219.00
1569, 2221.00
1570, 2221.00
1571, 2223.00
1572, 2227.00
1573, 2228.00
1574, 2229.00
1575, 2230.00
1576, 2232.00
1577, 2236.00
1578, 2235.00
1579, 2237.00
1580, 2240.00
1581, 2240.00
1582, 2243.00
1583, 2244.00
1584, 2246.00
1585, 2247.00
1586, 2250.00
1587, 2251.00
1588, 2253.00
1589, 2254.00
1590, 2256.00
1591, 2257.00
1592, 2259.00
1593, 2261.00
1594, 2261.00
1595, 2263.00
1596, 2265.00
1597, 2267.00
1598, 2269.00
1599, 2271.00
1600, 2271.00
1601, 2273.00
1602, 2273.00
1603, 2276.00
1604, 2278.00
1605, 2280.00
1606, 2283.00
1607, 2285.00
1608, 2285.00
1609, 2288.00
1610, 2289.00
1611, 2291.00
1612, 2293.00
1613, 2295.00
1614, 2297.00
1615, 2298.00
1616, 2300.00
1617, 2304.00
1618, 2305.00
1619, 2307.00
1620, 2309.00
1621, 2311.00
1622, 2314.00
1623, 2315.00
1624, 2317.00
1625, 2319.00
1626, 2321.00
1627, 2323.00
1628, 2325.00
1629, 2326.00
1630, 2329.00
1631, 2331.00
1632, 2332.00
1633, 2334.00
1634, 2336.00
1635, 2337.00
1636, 2339.00
1637, 2341.00
1638, 2342.00
1639, 2344.00
1640, 2346.00
1641, 2347.00
1642, 2349.00
1643, 2351.00
1644, 2352.00
1645, 2353.00
1646, 2357.00
1647, 2357.00
1648, 2359.00
1649, 2360.00
1650, 2361.00

1750, 2777.00
1751, 2778.00
1752, 2778.00
1753, 2777.00
1754, 2777.00
1755, 2780.00
1756, 2776.00
1757, 2778.00
1758, 2777.00
1759, 2777.00
1760, 2777.00
1761, 2777.00
1762, 2778.00
1763, 2776.00
1764, 2776.00
1765, 2777.00
1766, 2773.00
1767, 2775.00
1768, 2773.00
1769, 2772.00
1770, 2774.00
1771, 2772.00
1772, 2774.00
1773, 2770.00
1774, 2773.00
1775, 2769.00
1776, 2772.00
1777, 2769.00
1778, 2770.00
1779, 2770.00
1780, 2768.00
1781, 2767.00
1782, 2767.00
1783, 2765.00
1784, 2766.00
1785, 2767.00
1786, 2764.00
1787, 2763.00
1788, 2763.00
1789, 2762.00
1790, 2760.00
1791, 2761.00
1792, 2759.00
1793, 2761.00
1794, 2759.00
1795, 2758.00
1796, 2757.00
1797, 2758.00
1798, 2756.00
1799, 2755.00
1800, 2755.00
1801, 2754.00
1802, 2753.00
1803, 2755.00
1804, 2754.00
1805, 2754.00
1806, 2752.00
1807, 2750.00
1808, 2751.00
1809, 2750.00
1810, 2749.00
1811, 2748.00
1812, 2748.00
1813, 2747.00
1814, 2745.00
1815, 2746.00
1816, 2743.00
1817, 2745.00
1818, 2741.00
1819, 2742.00
1820, 2740.00
1821, 2737.00
1822, 2737.00
1823, 2737.00
1824, 2734.00
1825, 2731.00
1826, 2730.00
1827, 2728.00
1828, 2726.00
1829, 2726.00
1830, 2724.00
1831, 2722.00
1832, 2721.00
1833, 2718.00
1834, 2716.00
1835, 2712.00
1836, 2712.00
1837, 2709.00
1838, 2706.00
1839, 2703.00
1840, 2701.00
1841, 2699.00
1842, 2694.00
1843, 2691.00
1844, 2690.00
1845, 2686.00
1846, 2684.00
1847, 2682.00
1848, 2677.00
1849, 2674.00
1850, 2671.00
1851, 2669.00
1852, 2666.00
1853, 2663.00
1854, 2660.00
1855, 2657.00
1856, 2657.00
1857, 2654.00
1858, 2650.00
1859, 2648.00
1860, 2646.00
1861, 2642.00
1862, 2638.00
1863, 2637.00
1864, 2637.00
1865, 2631.00
1866, 2631.00
1867, 2629.00
1868, 2626.00
1869, 2625.00
1870, 2624.00
1871, 2621.00
1872, 2618.00
1873, 2619.00
1874, 2617.00
1875, 2616.00
1876, 2615.00
1877, 2613.00
1878, 2612.00
1879, 2611.00
1880, 2611.00
1881, 2608.00
1882, 2607.00
1883, 2608.00
1884, 2606.00
1885, 2606.00
1886, 2605.00
1887, 2604.00
1888, 2603.00
1889, 2603.00
1890, 2602.00
1891, 2600.00
1892, 2600.00
1893, 2600.00
1894, 2601.00
1895, 2598.00
1896, 2598.00
1897, 2597.00
1898, 2596.00
1899, 2596.00
1900, 2596.00
1901, 2597.00
1902, 2595.00
1903, 2594.00
1904, 2595.00
1905, 2596.00
1906, 2594.00
1907, 2593.00
1908, 2592.00
1909, 2593.00
1910, 2592.00
1911, 2591.00
1912, 2592.00
1913, 2592.00
1914, 2592.00
1915, 2591.00
1916, 2591.00
1917, 2590.00
1918, 2591.00
1919, 2588.00
1920, 2592.00
1921, 2590.00
1922, 2591.00
1923, 2590.00
1924, 2591.00
1925, 2591.00
1926, 2592.00
1927, 2590.00
1928, 2589.00
1929, 2590.00
1930, 2591.00
1931, 2592.00
1932, 2589.00
1933, 2589.00
1934, 2590.00
1935, 2591.00
1936, 2592.00
1937, 2591.00
1938, 2591.00
1939, 2592.00
1940, 2592.00
1941, 2593.00
1942, 2593.00
1943, 2592.00
1944, 2592.00
1945, 2592.00
1946, 2592.00
1947, 2593.00
1948, 2593.00
1949, 2596.00
1950, 2595.00
1951, 2595.00
1952, 2594.00
1953, 2594.00
1954, 2596.00
1955, 2597.00
1956, 2596.00
1957, 2595.00
1958, 2597.00
1959, 2597.00
1960, 2599.00
1961, 2598.00
1962, 2600.00
1963, 2599.00
1964, 2600.00
1965, 2601.00
1966, 2600.00
1967, 2602.00
1968, 2603.00
1969, 2603.00
1970, 2603.00
1971, 2602.00
1972, 2605.00
1973, 2605.00
1974, 2606.00
1975, 2605.00
1976, 2609.00
1977, 2610.00
1978, 2609.00
1979, 2611.00
1980, 2610.00
1981, 2612.00
1982, 2611.00
1983, 2611.00
1984, 2613.00
1985, 2613.00
1986, 2612.00
1987, 2614.00
1988, 2614.00
1989, 2615.00
1990, 2615.00
1991, 2619.00
1992, 2616.00
1993, 2621.00
1994, 2619.00
1995, 2618.00
1996, 2620.00
1997, 2622.00
1998, 2620.00
1999, 2619.00
2000, 2624.00
2001, 2625.00
2002, 2624.00
2003, 2625.00
2004, 2625.00
2005, 2625.00
2006, 2625.00
2007, 2627.00
2008, 2627.00
2009, 2628.00
2010, 2629.00
2011, 2629.00
2012, 2630.00
2013, 2630.00
2014, 2631.00
2015, 2632.00
2016, 2632.00
2017, 2633.00
2018, 2635.00
2019, 2634.00
2020, 2637.00
2021, 2639.00
2022, 2638.00
2023, 2639.00
2024, 2640.00
2025, 2639.00
2026, 2641.00
2027, 2643.00
2028, 2640.00
2029, 2643.00
2030, 2643.00
2031, 2643.00
2032, 2645.00
2033, 2646.00
2034, 2647.00
2035, 2645.00
2036, 2648.00
2037, 2650.00
2038, 2648.00
2039, 2649.00
2040, 2653.00
2041, 2655.00
2042, 2653.00
2043, 2655.00
2044, 2655.00
2045, 2653.00
2046, 2655.00
2047, 2655.00
2048, 2659.00
2049, 2660.00
2050, 2661.00
2051, 2659.00
2052, 2662.00
2053, 2664.00
2054, 2664.00
2055, 2665.00
2056, 2668.00
2057, 2666.00
2058, 2669.00
2059, 2671.00
2060, 2671.00
2061, 2670.00
2062, 2671.00
2063, 2672.00
2064, 2675.00
2065, 2676.00
2066, 2677.00
2067, 2678.00
2068, 2679.00
2069, 2680.00
2070, 2682.00
2071, 2681.00
2072, 2685.00
2073, 2684.00
2074, 2683.00
2075, 2686.00
2076, 2687.00
2077, 2687.00
2078, 2688.00
2079, 2691.00
2080, 2691.00
2081, 2690.00
2082, 2693.00
2083, 2692.00
2084, 2692.00
2085, 2696.00
2086, 2696.00
2087, 2696.00
2088, 2697.00
2089, 2699.00
2090, 2697.00
2091, 2699.00
2092, 2701.00
2093, 2701.00
2094, 2701.00
2095, 2704.00
2096, 2702.00
2097, 2704.00
2098, 2706.00
2099, 2706.00
2100, 2705.00
2101, 2707.00
2102, 2708.00
2103, 2706.00
2104, 2706.00
2105, 2711.00
2106, 2711.00
2107, 2712.00
2108, 2712.00
2109, 2710.00
2110, 2712.00
2111, 2711.00
2112, 2712.00
2113, 2713.00
2114, 2712.00
2115, 2713.00
2116, 2713.00
2117, 2715.00
2118, 2716.00
2119, 2715.00
2120, 2717.00
2121, 2716.00
2122, 2716.00
2123, 2718.00
2124, 2719.00
2125, 2719.00
2126, 2718.00
2127, 2720.00
2128, 2721.00
2129, 2719.00
2130, 2719.00
2131, 2721.00
2132, 2720.00
2133, 2722.00
2134, 2722.00
2135, 2725.00
2136, 2723.00
2137, 2723.00
2138, 2723.00
2139, 2723.00
2140, 2726.00
2141, 2725.00
2142, 2726.00
2143, 2725.00
2144, 2725.00
2145, 2725.00
2146, 2727.00
2147, 2727.00
2148, 2728.00
2149, 2727.00
2150, 2728.00
