FW version: 24
Log Version: 3.0.3

General Info:
       Command/Macro Performed,            Timestamp,             Device ID, COM Port, UART/I2C, Test Name, Host Major, Host Minor, Host Revision, Host Git Commit
            Single_measurement,  2023_06_30_11_58_00,       Insight2_F4_xxx,    USB-C,      USB,          ,          0,          1,             1,      4031237645

Show Spectrometer Status:
l0_version, f4_version, battery_perc, battery_mVolt, accelerometer_temp, accelerometer_x, accelerometer_y, accelerometer_z, compass_temp, compass_x, compass_y, compass_z, lamp_0, lamp_1, gain_0, gain_1
        17,         24,           95,          2079,               5856,           65516,             844,           18472,            0,     65534,     65356,     65515,   2047,   2047,      1,      1

Temperature Statistic Info:
NTC AVG [°C], NTC2 AVG [°C]
      37.954,        37.669

Statistic Info:
M1:  num,      min,      max,   median,      AVG,      STD,M2:  num,      min,      max,   median,      AVG,      STD
     301,   946.00,  1103.00,   980.00,   998.37,  49.4709,     401,  1385.00,  1486.00,  1428.00,  1431.16,  33.0343,

Measurements:
Wavelength, Data Amplitude
1350, 971.00
1351, 971.00
1352, 971.00
1353, 970.00
1354, 969.00
1355, 969.00
1356, 969.00
1357, 968.00
1358, 966.00
1359, 967.00
1360, 967.00
1361, 965.00
1362, 965.00
1363, 965.00
1364, 963.00
1365, 963.00
1366, 963.00
1367, 962.00
1368, 961.00
1369, 959.00
1370, 960.00
1371, 959.00
1372, 959.00
1373, 957.00
1374, 957.00
1375, 957.00
1376, 956.00
1377, 956.00
1378, 955.00
1379, 955.00
1380, 954.00
1381, 953.00
1382, 953.00
1383, 952.00
1384, 952.00
1385, 951.00
1386, 951.00
1387, 950.00
1388, 950.00
1389, 950.00
1390, 950.00
1391, 950.00
1392, 950.00
1393, 949.00
1394, 950.00
1395, 949.00
1396, 949.00
1397, 948.00
1398, 949.00
1399, 948.00
1400, 948.00
1401, 948.00
1402, 948.00
1403, 947.00
1404, 947.00
1405, 947.00
1406, 947.00
1407, 946.00
1408, 947.00
1409, 946.00
1410, 946.00
1411, 947.00
1412, 947.00
1413, 946.00
1414, 946.00
1415, 946.00
1416, 947.00
1417, 947.00
1418, 947.00
1419, 947.00
1420, 947.00
1421, 946.00
1422, 947.00
1423, 947.00
1424, 946.00
1425, 948.00
1426, 947.00
1427, 946.00
1428, 947.00
1429, 947.00
1430, 948.00
1431, 948.00
1432, 948.00
1433, 947.00
1434, 949.00
1435, 949.00
1436, 949.00
1437, 949.00
1438, 949.00
1439, 949.00
1440, 950.00
1441, 950.00
1442, 951.00
1443, 950.00
1444, 951.00
1445, 951.00
1446, 951.00
1447, 951.00
1448, 952.00
1449, 952.00
1450, 953.00
1451, 953.00
1452, 954.00
1453, 954.00
1454, 954.00
1455, 955.00
1456, 954.00
1457, 955.00
1458, 956.00
1459, 955.00
1460, 956.00
1461, 956.00
1462, 957.00
1463, 958.00
1464, 958.00
1465, 958.00
1466, 959.00
1467, 959.00
1468, 959.00
1469, 960.00
1470, 961.00
1471, 961.00
1472, 962.00
1473, 963.00
1474, 963.00
1475, 963.00
1476, 964.00
1477, 965.00
1478, 966.00
1479, 966.00
1480, 967.00
1481, 967.00
1482, 967.00
1483, 968.00
1484, 969.00
1485, 970.00
1486, 970.00
1487, 971.00
1488, 971.00
1489, 973.00
1490, 972.00
1491, 974.00
1492, 974.00
1493, 976.00
1494, 976.00
1495, 977.00
1496, 977.00
1497, 977.00
1498, 977.00
1499, 979.00
1500, 980.00
1501, 980.00
1502, 981.00
1503, 981.00
1504, 982.00
1505, 983.00
1506, 984.00
1507, 984.00
1508, 985.00
1509, 986.00
1510, 986.00
1511, 987.00
1512, 988.00
1513, 988.00
1514, 989.00
1515, 989.00
1516, 991.00
1517, 991.00
1518, 993.00
1519, 993.00
1520, 994.00
1521, 995.00
1522, 996.00
1523, 996.00
1524, 996.00
1525, 997.00
1526, 999.00
1527, 999.00
1528, 1000.00
1529, 1001.00
1530, 1002.00
1531, 1004.00
1532, 1004.00
1533, 1004.00
1534, 1005.00
1535, 1006.00
1536, 1007.00
1537, 1007.00
1538, 1009.00
1539, 1008.00
1540, 1010.00
1541, 1011.00
1542, 1012.00
1543, 1012.00
1544, 1013.00
1545, 1013.00
1546, 1014.00
1547, 1015.00
1548, 1016.00
1549, 1016.00
1550, 1018.00
1551, 1019.00
1552, 1019.00
1553, 1020.00
1554, 1021.00
1555, 1021.00
1556, 1022.00
1557, 1024.00
1558, 1024.00
1559, 1025.00
1560, 1027.00
1561, 1027.00
1562, 1028.00
1563, 1030.00
1564, 1030.00
1565, 1031.00
1566, 1032.00
1567, 1032.00
1568, 1033.00
1569, 1034.00
1570, 1035.00
1571, 1036.00
1572, 1037.00
1573, 1037.00
1574, 1039.00
1575, 1040.00
1576, 1041.00
1577, 1041.00
1578, 1042.00
1579, 1042.00
1580, 1043.00
1581, 1044.00
1582, 1046.00
1583, 1045.00
1584, 1047.00
1585, 1048.00
1586, 1048.00
1587, 1048.00
1588, 1050.00
1589, 1049.00
1590, 1050.00
1591, 1052.00
1592, 1053.00
1593, 1054.00
1594, 1054.00
1595, 1054.00
1596, 1056.00
1597, 1058.00
1598, 1058.00
1599, 1059.00
1600, 1060.00
1601, 1060.00
1602, 1061.00
1603, 1062.00
1604, 1062.00
1605, 1064.00
1606, 1065.00
1607, 1065.00
1608, 1066.00
1609, 1067.00
1610, 1068.00
1611, 1070.00
1612, 1070.00
1613, 1072.00
1614, 1073.00
1615, 1074.00
1616, 1074.00
1617, 1075.00
1618, 1075.00
1619, 1076.00
1620, 1079.00
1621, 1079.00
1622, 1081.00
1623, 1081.00
1624, 1081.00
1625, 1083.00
1626, 1085.00
1627, 1084.00
1628, 1086.00
1629, 1088.00
1630, 1088.00
1631, 1089.00
1632, 1089.00
1633, 1090.00
1634, 1091.00
1635, 1092.00
1636, 1093.00
1637, 1094.00
1638, 1095.00
1639, 1096.00
1640, 1096.00
1641, 1097.00
1642, 1097.00
1643, 1098.00
1644, 1098.00
1645, 1099.00
1646, 1100.00
1647, 1100.00
1648, 1102.00
1649, 1101.00
1650, 1103.00

1750, 1485.00
1751, 1484.00
1752, 1486.00
1753, 1484.00
1754, 1483.00
1755, 1485.00
1756, 1484.00
1757, 1483.00
1758, 1482.00
1759, 1483.00
1760, 1483.00
1761, 1486.00
1762, 1486.00
1763, 1484.00
1764, 1482.00
1765, 1483.00
1766, 1483.00
1767, 1482.00
1768, 1483.00
1769, 1484.00
1770, 1483.00
1771, 1485.00
1772, 1483.00
1773, 1483.00
1774, 1484.00
1775, 1481.00
1776, 1483.00
1777, 1483.00
1778, 1481.00
1779, 1480.00
1780, 1480.00
1781, 1480.00
1782, 1481.00
1783, 1477.00
1784, 1480.00
1785, 1478.00
1786, 1479.00
1787, 1479.00
1788, 1478.00
1789, 1479.00
1790, 1480.00
1791, 1477.00
1792, 1478.00
1793, 1477.00
1794, 1477.00
1795, 1476.00
1796, 1475.00
1797, 1475.00
1798, 1475.00
1799, 1473.00
1800, 1475.00
1801, 1475.00
1802, 1473.00
1803, 1473.00
1804, 1473.00
1805, 1473.00
1806, 1475.00
1807, 1473.00
1808, 1472.00
1809, 1472.00
1810, 1472.00
1811, 1470.00
1812, 1471.00
1813, 1472.00
1814, 1470.00
1815, 1469.00
1816, 1468.00
1817, 1469.00
1818, 1468.00
1819, 1468.00
1820, 1467.00
1821, 1467.00
1822, 1466.00
1823, 1466.00
1824, 1465.00
1825, 1463.00
1826, 1462.00
1827, 1462.00
1828, 1461.00
1829, 1460.00
1830, 1459.00
1831, 1457.00
1832, 1457.00
1833, 1456.00
1834, 1455.00
1835, 1453.00
1836, 1453.00
1837, 1450.00
1838, 1450.00
1839, 1447.00
1840, 1448.00
1841, 1445.00
1842, 1446.00
1843, 1442.00
1844, 1442.00
1845, 1440.00
1846, 1438.00
1847, 1437.00
1848, 1436.00
1849, 1433.00
1850, 1433.00
1851, 1432.00
1852, 1428.00
1853, 1426.00
1854, 1427.00
1855, 1425.00
1856, 1422.00
1857, 1422.00
1858, 1417.00
1859, 1419.00
1860, 1418.00
1861, 1417.00
1862, 1416.00
1863, 1413.00
1864, 1412.00
1865, 1410.00
1866, 1409.00
1867, 1407.00
1868, 1407.00
1869, 1407.00
1870, 1407.00
1871, 1404.00
1872, 1402.00
1873, 1403.00
1874, 1402.00
1875, 1402.00
1876, 1401.00
1877, 1400.00
1878, 1400.00
1879, 1400.00
1880, 1398.00
1881, 1398.00
1882, 1397.00
1883, 1397.00
1884, 1396.00
1885, 1395.00
1886, 1395.00
1887, 1394.00
1888, 1394.00
1889, 1395.00
1890, 1394.00
1891, 1393.00
1892, 1393.00
1893, 1392.00
1894, 1394.00
1895, 1393.00
1896, 1393.00
1897, 1391.00
1898, 1392.00
1899, 1389.00
1900, 1390.00
1901, 1391.00
1902, 1391.00
1903, 1390.00
1904, 1389.00
1905, 1390.00
1906, 1389.00
1907, 1388.00
1908, 1388.00
1909, 1387.00
1910, 1389.00
1911, 1389.00
1912, 1388.00
1913, 1388.00
1914, 1389.00
1915, 1388.00
1916, 1388.00
1917, 1389.00
1918, 1387.00
1919, 1388.00
1920, 1389.00
1921, 1388.00
1922, 1387.00
1923, 1387.00
1924, 1385.00
1925, 1387.00
1926, 1388.00
1927, 1387.00
1928, 1387.00
1929, 1386.00
1930, 1387.00
1931, 1387.00
1932, 1388.00
1933, 1388.00
1934, 1389.00
1935, 1388.00
1936, 1388.00
1937, 1386.00
1938, 1389.00
1939, 1387.00
1940, 1389.00
1941, 1389.00
1942, 1388.00
1943, 1390.00
1944, 1388.00
1945, 1389.00
1946, 1389.00
1947, 1387.00
1948, 1390.00
1949, 1390.00
1950, 1390.00
1951, 1389.00
1952, 1389.00
1953, 1390.00
1954, 1389.00
1955, 1391.00
1956, 1391.00
1957, 1392.00
1958, 1391.00
1959, 1392.00
1960, 1392.00
1961, 1391.00
1962, 1393.00
1963, 1393.00
1964, 1392.00
1965, 1394.00
1966, 1393.00
1967, 1395.00
1968, 1395.00
1969, 1395.00
1970, 1395.00
1971, 1396.00
1972, 1396.00
1973, 1396.00
1974, 1396.00
1975, 1397.00
1976, 1397.00
1977, 1397.00
1978, 1397.00
1979, 1399.00
1980, 1398.00
1981, 1399.00
1982, 1398.00
1983, 1400.00
1984, 1401.00
1985, 1399.00
1986, 1399.00
1987, 1400.00
1988, 1399.00
1989, 1402.00
1990, 1402.00
1991, 1401.00
1992, 1403.00
1993, 1405.00
1994, 1404.00
1995, 1403.00
1996, 1404.00
1997, 1405.00
1998, 1404.00
1999, 1406.00
2000, 1405.00
2001, 1408.00
2002, 1406.00
2003, 1406.00
2004, 1407.00
2005, 1407.00
2006, 1407.00
2007, 1410.00
2008, 1408.00
2009, 1408.00
2010, 1408.00
2011, 1411.00
2012, 1412.00
2013, 1411.00
2014, 1411.00
2015, 1411.00
2016, 1413.00
2017, 1412.00
2018, 1411.00
2019, 1414.00
2020, 1413.00
2021, 1414.00
2022, 1413.00
2023, 1412.00
2024, 1415.00
2025, 1415.00
2026, 1414.00
2027, 1417.00
2028, 1415.00
2029, 1417.00
2030, 1417.00
2031, 1418.00
2032, 1418.00
2033, 1417.00
2034, 1417.00
2035, 1419.00
2036, 1420.00
2037, 1420.00
2038, 1422.00
2039, 1421.00
2040, 1421.00
2041, 1422.00
2042, 1423.00
2043, 1423.00
2044, 1423.00
2045, 1423.00
2046, 1425.00
2047, 1425.00
2048, 1426.00
2049, 1426.00
2050, 1427.00
2051, 1426.00
2052, 1428.00
2053, 1430.00
2054, 1428.00
2055, 1430.00
2056, 1430.00
2057, 1431.00
2058, 1431.00
2059, 1433.00
2060, 1435.00
2061, 1433.00
2062, 1435.00
2063, 1435.00
2064, 1435.00
2065, 1437.00
2066, 1437.00
2067, 1437.00
2068, 1439.00
2069, 1440.00
2070, 1439.00
2071, 1439.00
2072, 1442.00
2073, 1440.00
2074, 1441.00
2075, 1443.00
2076, 1442.00
2077, 1441.00
2078, 1444.00
2079, 1444.00
2080, 1443.00
2081, 1445.00
2082, 1444.00
2083, 1445.00
2084, 1448.00
2085, 1446.00
2086, 1449.00
2087, 1449.00
2088, 1448.00
2089, 1447.00
2090, 1449.00
2091, 1450.00
2092, 1452.00
2093, 1450.00
2094, 1452.00
2095, 1450.00
2096, 1452.00
2097, 1452.00
2098, 1453.00
2099, 1453.00
2100, 1453.00
2101, 1455.00
2102, 1454.00
2103, 1456.00
2104, 1455.00
2105, 1454.00
2106, 1455.00
2107, 1457.00
2108, 1456.00
2109, 1457.00
2110, 1457.00
2111, 1457.00
2112, 1459.00
2113, 1457.00
2114, 1459.00
2115, 1457.00
2116, 1459.00
2117, 1461.00
2118, 1460.00
2119, 1459.00
2120, 1460.00
2121, 1462.00
2122, 1460.00
2123, 1460.00
2124, 1459.00
2125, 1461.00
2126, 1460.00
2127, 1462.00
2128, 1461.00
2129, 1462.00
2130, 1463.00
2131, 1464.00
2132, 1461.00
2133, 1463.00
2134, 1465.00
2135, 1463.00
2136, 1465.00
2137, 1465.00
2138, 1466.00
2139, 1464.00
2140, 1465.00
2141, 1464.00
2142, 1465.00
2143, 1466.00
2144, 1465.00
2145, 1465.00
2146, 1466.00
2147, 1466.00
2148, 1465.00
2149, 1467.00
2150, 1466.00
